File: Calibration/FTIR-PolystyreneFilm_2cm-1.csv
4000,0.0835
3997.5,0.0837
3995,0.0824
3992.5,0.0804
3990,0.0784
3987.5,0.0761
3985,0.0737
3982.5,0.0714
3980,0.069
3977.5,0.0664
3975,0.0636
3972.5,0.0605
3970,0.0575
3967.5,0.055
3965,0.0529
3962.5,0.0513
3960,0.0505
3957.5,0.0506
3955,0.0513
3952.5,0.0527
3950,0.0549
3947.5,0.0577
3945,0.0611
3942.5,0.0646
3940,0.0682
3937.5,0.0713
3935,0.0739
3932.5,0.0757
3930,0.0768
3927.5,0.0773
3925,0.077
3922.5,0.076
3920,0.0743
3917.5,0.072
3915,0.0692
3912.5,0.0662
3910,0.0632
3907.5,0.0601
3905,0.0573
3902.5,0.0548
3900,0.0528
3897.5,0.0512
3895,0.0502
3892.5,0.0497
3890,0.0499
3887.5,0.051
3885,0.0525
3882.5,0.0546
3880,0.0575
3877.5,0.0606
3875,0.0638
3872.5,0.0666
3870,0.0692
3867.5,0.0714
3865,0.0729
3862.5,0.0739
3860,0.074
3857.5,0.0727
3855,0.0707
3852.5,0.0696
3850,0.0674
3847.5,0.0647
3845,0.0616
3842.5,0.0586
3840,0.0553
3837.5,0.053
3835,0.0511
3832.5,0.0495
3830,0.0486
3827.5,0.0483
3825,0.0489
3822.5,0.05
3820,0.0516
3817.5,0.0538
3815,0.0565
3812.5,0.0598
3810,0.0634
3807.5,0.0664
3805,0.0696
3802.5,0.0722
3800,0.0746
3797.5,0.076
3795,0.0766
3792.5,0.0761
3790,0.0749
3787.5,0.073
3785,0.0704
3782.5,0.0674
3780,0.0643
3777.5,0.0613
3775,0.0581
3772.5,0.0549
3770,0.0525
3767.5,0.0503
3765,0.0486
3762.5,0.0476
3760,0.0468
3757.5,0.0468
3755,0.0474
3752.5,0.0486
3750,0.0502
3747.5,0.053
3745,0.0567
3742.5,0.0604
3740,0.0652
3737.5,0.0693
3735,0.0728
3732.5,0.0761
3730,0.0783
3727.5,0.0794
3725,0.0793
3722.5,0.0778
3720,0.0746
3717.5,0.0702
3715,0.0656
3712.5,0.0623
3710,0.0602
3707.5,0.058
3705,0.0561
3702.5,0.0544
3700,0.0523
3697.5,0.0499
3695,0.0476
3692.5,0.046
3690,0.0459
3687.5,0.047
3685,0.0498
3682.5,0.0535
3680,0.0571
3677.5,0.0608
3675,0.0638
3672.5,0.0671
3670,0.0702
3667.5,0.0732
3665,0.0755
3662.5,0.0774
3660,0.079
3657.5,0.0801
3655,0.0814
3652.5,0.0816
3650,0.0817
3647.5,0.0811
3645,0.0777
3642.5,0.0718
3640,0.0648
3637.5,0.0586
3635,0.054
3632.5,0.0514
3630,0.0503
3627.5,0.0513
3625,0.0537
3622.5,0.0564
3620,0.0581
3617.5,0.0581
3615,0.0577
3612.5,0.0585
3610,0.0609
3607.5,0.0643
3605,0.0676
3602.5,0.0704
3600,0.0725
3597.5,0.0737
3595,0.0741
3592.5,0.0736
3590,0.0716
3587.5,0.0691
3585,0.0664
3582.5,0.0629
3580,0.0591
3577.5,0.0551
3575,0.0513
3572.5,0.0477
3570,0.0446
3567.5,0.042
3565,0.0406
3562.5,0.04
3560,0.0401
3557.5,0.0411
3555,0.0428
3552.5,0.0453
3550,0.0483
3547.5,0.052
3545,0.056
3542.5,0.06
3540,0.0638
3537.5,0.0672
3535,0.07
3532.5,0.0721
3530,0.0733
3527.5,0.0738
3525,0.0734
3522.5,0.0721
3520,0.0701
3517.5,0.0673
3515,0.0642
3512.5,0.0608
3510,0.0572
3507.5,0.0538
3505,0.0507
3502.5,0.0481
3500,0.0463
3497.5,0.045
3495,0.0447
3492.5,0.0452
3490,0.0466
3487.5,0.0489
3485,0.0517
3482.5,0.0551
3480,0.059
3477.5,0.0631
3475,0.0672
3472.5,0.0709
3470,0.074
3467.5,0.0765
3465,0.0781
3462.5,0.0789
3460,0.0788
3457.5,0.0776
3455,0.0757
3452.5,0.0731
3450,0.0699
3447.5,0.0666
3445,0.0633
3442.5,0.0595
3440,0.0561
3437.5,0.0525
3435,0.0491
3432.5,0.0462
3430,0.0443
3427.5,0.0432
3425,0.043
3422.5,0.044
3420,0.0459
3417.5,0.0485
3415,0.0521
3412.5,0.056
3410,0.0599
3407.5,0.0638
3405,0.0673
3402.5,0.0705
3400,0.0726
3397.5,0.0737
3395,0.074
3392.5,0.0734
3390,0.0717
3387.5,0.0694
3385,0.0663
3382.5,0.0628
3380,0.0589
3377.5,0.0547
3375,0.0506
3372.5,0.0468
3370,0.0436
3367.5,0.041
3365,0.0393
3362.5,0.0387
3360,0.0389
3357.5,0.04
3355,0.0422
3352.5,0.0452
3350,0.0486
3347.5,0.0526
3345,0.0568
3342.5,0.061
3340,0.065
3337.5,0.0681
3335,0.0708
3332.5,0.0725
3330,0.0732
3327.5,0.0728
3325,0.0715
3322.5,0.069
3320,0.066
3317.5,0.0624
3315,0.0584
3312.5,0.0543
3310,0.0504
3307.5,0.047
3305,0.0437
3302.5,0.0406
3300,0.0389
3297.5,0.0382
3295,0.0384
3292.5,0.0396
3290,0.0416
3287.5,0.0446
3285,0.0485
3282.5,0.0528
3280,0.0573
3277.5,0.0618
3275,0.0661
3272.5,0.0703
3270,0.0732
3267.5,0.0754
3265,0.0767
3262.5,0.0768
3260,0.0759
3257.5,0.0741
3255,0.0714
3252.5,0.068
3250,0.064
3247.5,0.0599
3245,0.0557
3242.5,0.0521
3240,0.049
3237.5,0.0463
3235,0.0445
3232.5,0.0436
3230,0.044
3227.5,0.0453
3225,0.0477
3222.5,0.051
3220,0.0552
3217.5,0.0602
3215,0.0654
3212.5,7.08E-02
3210,7.62E-02
3207.5,8.10E-02
3205,8.50E-02
3202.5,8.78E-02
3200,8.91E-02
3197.5,0.0889
3195,0.0872
3192.5,0.0845
3190,0.0811
3187.5,0.0773
3185,0.0734
3182.5,0.0692
3180,0.0653
3177.5,0.0619
3175,0.0595
3172.5,0.0592
3170,0.0613
3167.5,0.0666
3165,0.0736
3162.5,0.0788
3160,0.0795
3157.5,0.0783
3155,0.0787
3152.5,0.0817
3150,0.0858
3147.5,0.0904
3145,0.0947
3142.5,0.0983
3140,0.101
3137.5,0.1024
3135,0.1032
3132.5,0.1032
3130,0.1024
3127.5,0.1015
3125,0.1009
3122.5,0.1018
3120,0.1056
3117.5,0.1146
3115,0.132
3112.5,0.1624
3110,0.2103
3107.5,0.2727
3105,0.3278
3102.5,0.3462
3100,0.3306
3097.5,0.3145
3095,0.324
3092.5,0.3735
3090,0.4782
3087.5,0.6495
3085,0.859
3082.5,0.9763
3080,0.8967
3077.5,0.748
3075,0.6613
3072.5,0.6503
3070,0.7037
3067.5,0.8282
3065,1.0252
3062.5,1.2455
3060,1.3432
3057.5,1.226
3055,1.003
3052.5,0.8165
3050,0.6916
3047.5,0.6141
3045,0.5889
3042.5,0.6236
3040,0.7161
3037.5,0.8715
3035,1.1144
3032.5,1.4688
3030,1.89
3027.5,2.1774
3025,2.2254
3022.5,1.9232
3020,1.3835
3017.5,0.949
3015,0.6767
3012.5,0.5207
3010,0.4512
3007.5,0.4527
3005,0.5081
3002.5,0.5725
3000,0.5629
2997.5,0.4592
2995,0.349
2992.5,0.2836
2990,0.2508
2987.5,0.2339
2985,0.2254
2982.5,0.2233
2980,0.2268
2977.5,0.2322
2975,0.2351
2972.5,0.2381
2970,0.2486
2967.5,0.2698
2965,0.3009
2962.5,0.3416
2960,0.3921
2957.5,0.4527
2955,0.5256
2952.5,0.6143
2950,0.7229
2947.5,0.8566
2945,1.019
2942.5,1.2096
2940,1.429
2937.5,1.6691
2935,1.9146
2932.5,2.1289
2930,2.2998
2927.5,2.3615
2925,2.4231
2922.5,2.4861
2920,2.5285
2917.5,2.4915
2915,2.3633
2912.5,2.1708
2910,1.9503
2907.5,1.7321
2905,1.5263
2902.5,1.3324
2900,1.1552
2897.5,1.0069
2895,0.893
2892.5,0.8084
2890,0.7443
2887.5,0.6896
2885,0.6405
2882.5,0.5935
2880,0.5473
2877.5,0.5041
2875,0.4675
2872.5,0.443
2870,0.4354
2867.5,0.4495
2865,0.4888
2862.5,0.5549
2860,0.6441
2857.5,0.7481
2855,0.8504
2852.5,0.929
2850,0.9592
2847.5,0.9232
2845,0.8136
2842.5,0.6518
2840,0.4848
2837.5,0.3533
2835,0.2681
2832.5,0.2182
2830,0.189
2827.5,0.1698
2825,0.1555
2822.5,0.1438
2820,0.1339
2817.5,0.1257
2815,0.1189
2812.5,0.1137
2810,0.1094
2807.5,0.1053
2805,0.1016
2802.5,0.0988
2800,0.0975
2797.5,0.0978
2795,0.0994
2792.5,0.1022
2790,0.1059
2787.5,0.1102
2785,0.1147
2782.5,0.1186
2780,0.1211
2777.5,0.1212
2775,0.1189
2772.5,0.1146
2770,0.1095
2767.5,0.1038
2765,0.0977
2762.5,0.0914
2760,0.0851
2757.5,0.0791
2755,0.0736
2752.5,0.0688
2750,0.065
2747.5,0.0628
2745,0.0618
2742.5,0.0627
2740,0.0652
2737.5,0.0693
2735,0.0745
2732.5,0.0805
2730,0.0865
2727.5,0.0923
2725,0.0979
2722.5,0.1029
2720,0.1068
2717.5,0.1095
2715,0.1109
2712.5,0.111
2710,0.1097
2707.5,0.1073
2705,0.1039
2702.5,0.0998
2700,0.0952
2697.5,0.0905
2695,0.0856
2692.5,0.0809
2690,0.0767
2687.5,0.073
2685,0.0701
2682.5,0.0682
2680,0.0674
2677.5,0.068
2675,0.07
2672.5,0.0731
2670,0.0769
2667.5,0.0811
2665,0.0858
2662.5,0.0909
2660,0.0961
2657.5,0.1009
2655,0.105
2652.5,0.108
2650,0.1099
2647.5,0.1105
2645,0.1097
2642.5,0.1078
2640,0.1055
2637.5,0.1037
2635,0.1026
2632.5,0.1007
2630,0.0952
2627.5,0.0863
2625,0.0776
2622.5,0.0706
2620,0.0657
2617.5,0.0626
2615,0.062
2612.5,0.0639
2610,0.0683
2607.5,0.0749
2605,0.0819
2602.5,0.0871
2600,0.0899
2597.5,0.0914
2595,0.093
2592.5,0.0956
2590,0.0992
2587.5,0.1033
2585,0.1077
2582.5,0.1113
2580,0.1111
2577.5,0.1065
2575,0.1007
2572.5,0.095
2570,0.0897
2567.5,0.0844
2565,0.0791
2562.5,0.0738
2560,0.0688
2557.5,0.0644
2555,0.061
2552.5,0.0592
2550,0.0589
2547.5,0.0596
2545,0.0608
2542.5,0.0623
2540,0.0648
2537.5,0.0686
2535,0.0733
2532.5,0.0789
2530,0.0847
2527.5,0.0903
2525,0.0954
2522.5,0.0997
2520,0.1027
2517.5,0.1044
2515,0.1048
2512.5,0.1039
2510,0.1017
2507.5,0.0979
2505,0.0929
2502.5,0.087
2500,0.0805
2497.5,0.0745
2495,0.0688
2492.5,0.0637
2490,0.0591
2487.5,0.0552
2485,0.0528
2482.5,0.0513
2480,0.051
2477.5,0.0517
2475,0.0536
2472.5,0.0568
2470,0.0608
2467.5,0.0656
2465,0.0708
2462.5,0.0761
2460,0.0812
2457.5,0.0857
2455,0.0894
2452.5,0.0918
2450,0.0924
2447.5,0.0916
2445,0.0894
2442.5,0.0861
2440,0.0816
2437.5,0.0763
2435,0.0705
2432.5,0.0644
2430,0.0581
2427.5,0.0523
2425,0.0473
2422.5,0.0432
2420,0.0406
2417.5,0.0394
2415,0.0397
2412.5,0.0413
2410,0.0447
2407.5,0.0491
2405,0.0545
2402.5,0.0605
2400,0.0667
2397.5,0.0729
2395,0.0786
2392.5,0.0836
2390,0.0874
2387.5,0.09
2385,0.0918
2382.5,0.0938
2380,0.0964
2377.5,0.0981
2375,0.0882
2372.5,0.0768
2370,0.0711
2367.5,0.0659
2365,0.061
2362.5,0.0567
2360,0.0525
2357.5,0.0486
2355,0.0459
2352.5,0.0454
2350,0.0474
2347.5,0.0497
2345,0.0539
2342.5,0.0624
2340,0.0732
2337.5,0.0823
2335,0.0851
2332.5,0.083
2330,0.0814
2327.5,0.0821
2325,0.0848
2322.5,0.0886
2320,0.0928
2317.5,0.0974
2315,0.1017
2312.5,0.1033
2310,0.1004
2307.5,0.0927
2305,0.0832
2302.5,0.0744
2300,0.0672
2297.5,0.0613
2295,0.056
2292.5,0.0511
2290,0.0463
2287.5,0.0425
2285,0.039
2282.5,0.0382
2280,0.0396
2277.5,0.0426
2275,0.0469
2272.5,0.0523
2270,0.0585
2267.5,0.0651
2265,0.0719
2262.5,0.0784
2260,0.0841
2257.5,0.0888
2255,0.092
2252.5,0.0934
2250,0.0931
2247.5,0.0911
2245,0.0877
2242.5,0.0831
2240,0.0776
2237.5,0.0716
2235,0.0653
2232.5,0.0588
2230,0.0526
2227.5,0.0466
2225,0.0415
2222.5,0.0372
2220,0.0344
2217.5,0.0332
2215,0.0337
2212.5,0.0358
2210,0.039
2207.5,0.0429
2205,0.0476
2202.5,0.0532
2200,0.0593
2197.5,0.0657
2195,0.0721
2192.5,0.0776
2190,0.0822
2187.5,0.0856
2185,0.0873
2182.5,0.0869
2180,0.0845
2177.5,0.0806
2175,0.0757
2172.5,0.0699
2170,0.0636
2167.5,0.057
2165,0.0505
2162.5,0.0441
2160,0.0387
2157.5,0.0341
2155,0.0307
2152.5,0.0287
2150,0.0281
2147.5,0.029
2145,0.0314
2142.5,0.0351
2140,0.0399
2137.5,0.0455
2135,0.0517
2132.5,0.0581
2130,0.0643
2127.5,0.0701
2125,0.0749
2122.5,0.0785
2120,0.081
2117.5,0.0817
2115,0.0809
2112.5,0.0785
2110,0.0746
2107.5,0.0696
2105,0.0636
2102.5,0.057
2100,0.0503
2097.5,0.0436
2095,0.0374
2092.5,0.0321
2090,0.0277
2087.5,0.0248
2085,0.0235
2082.5,0.0239
2080,0.0259
2077.5,0.0295
2075,0.0344
2072.5,0.0402
2070,0.0468
2067.5,0.0536
2065,0.0603
2062.5,0.0666
2060,0.072
2057.5,0.0764
2055,0.0793
2052.5,0.0808
2050,0.0806
2047.5,0.079
2045,0.0759
2042.5,0.0716
2040,0.0662
2037.5,0.0603
2035,0.0542
2032.5,0.0479
2030,0.0418
2027.5,0.0362
2025,0.0316
2022.5,0.0282
2020,0.0266
2017.5,0.0268
2015,0.0289
2012.5,0.0328
2010,0.0381
2007.5,0.0442
2005,0.051
2002.5,0.0583
2000,0.0659
1997.5,0.0738
1995,0.082
1992.5,0.0898
1990,0.0971
1987.5,0.1028
1985,0.1051
1982.5,0.1036
1980,0.1004
1977.5,0.0969
1975,0.0945
1972.5,0.0956
1970,0.1017
1967.5,0.1118
1965,0.1244
1962.5,0.1365
1960,0.1464
1957.5,0.1541
1955,0.1622
1952.5,0.1742
1950,0.1923
1947.5,0.2144
1945,0.2331
1942.5,0.2385
1940,0.2267
1937.5,0.2008
1935,0.1712
1932.5,0.1468
1930,0.1313
1927.5,0.1234
1925,0.1192
1922.5,0.116
1920,0.113
1917.5,0.1084
1915,0.1047
1912.5,0.1004
1910,0.096
1907.5,0.0917
1905,0.0879
1902.5,0.0854
1900,0.0854
1897.5,0.0887
1895,0.0959
1892.5,0.1068
1890,0.1191
1887.5,0.1315
1885,0.1426
1882.5,0.1519
1880,0.1605
1877.5,0.1698
1875,0.1802
1872.5,0.1908
1870,0.196
1867.5,0.1927
1865,0.1822
1862.5,0.1658
1860,0.1482
1857.5,0.1335
1855,0.1228
1852.5,0.1153
1850,0.1096
1847.5,0.1052
1845,0.0994
1842.5,0.0926
1840,0.0869
1837.5,0.0814
1835,0.0772
1832.5,0.0755
1830,0.0753
1827.5,0.0798
1825,0.0853
1822.5,0.0949
1820,0.1064
1817.5,0.1192
1815,0.1341
1812.5,0.1503
1810,0.1674
1807.5,0.1849
1805,0.2
1802.5,0.2072
1800,0.2037
1797.5,0.1907
1795,0.1721
1792.5,0.1521
1790,0.1362
1787.5,0.1272
1785,0.1211
1782.5,0.1188
1780,0.1181
1777.5,0.1185
1775,0.1156
1772.5,0.1088
1770,0.1005
1767.5,0.0927
1765,0.0914
1762.5,0.0922
1760,0.0981
1757.5,0.1075
1755,0.1205
1752.5,0.1347
1750,0.1448
1747.5,0.1521
1745,0.1547
1742.5,0.152
1740,0.1454
1737.5,0.1397
1735,0.1324
1732.5,0.1259
1730,0.1248
1727.5,0.1251
1725,0.1259
1722.5,0.1272
1720,0.1262
1717.5,0.1242
1715,0.1216
1712.5,0.1189
1710,0.1164
1707.5,0.1132
1705,0.1076
1702.5,0.104
1700,0.091
1697.5,0.0838
1695,0.0754
1692.5,0.0732
1690,0.0729
1687.5,0.0745
1685,0.0806
1682.5,0.0843
1680,0.0916
1677.5,0.1013
1675,0.1068
1672.5,0.1171
1670,0.1235
1667.5,0.1283
1665,0.133
1662.5,0.1327
1660,0.1315
1657.5,0.1303
1655,0.1255
1652.5,0.1197
1650,0.1186
1647.5,0.1117
1645,0.1042
1642.5,0.0978
1640,0.0915
1637.5,0.0853
1635,0.0781
1632.5,0.0758
1630,0.0746
1627.5,0.0754
1625,0.08
1622.5,0.085
1620,0.0964
1617.5,0.1142
1615,0.1445
1612.5,0.1931
1610,0.282
1607.5,0.4654
1605,0.8004
1602.5,1.1819
1600,1.1463
1597.5,0.7442
1595,0.476
1592.5,0.3517
1590,0.2891
1587.5,0.2932
1585,0.3989
1582.5,0.4527
1580,0.3008
1577.5,0.2047
1575,0.1668
1572.5,0.1422
1570,0.1191
1567.5,0.1041
1565,0.093
1562.5,0.0879
1560,0.0861
1557.5,0.0896
1555,0.0977
1552.5,0.1065
1550,0.116
1547.5,0.1309
1545,0.1445
1542.5,0.1546
1540,0.1561
1537.5,0.1544
1535,0.1506
1532.5,0.1422
1530,0.1399
1527.5,0.1388
1525,0.1386
1522.5,0.1386
1520,0.1375
1517.5,0.1364
1515,0.1354
1512.5,0.1361
1510,0.1406
1507.5,0.1519
1505,0.1888
1502.5,0.2731
1500,0.4651
1497.5,0.9452
1495,2.1869
1492.5,3.1088
1490,1.5066
1487.5,0.8401
1485,0.5171
1482.5,0.3321
1480,0.241
1477.5,0.2027
1475,0.1903
1472.5,0.1931
1470,0.2094
1467.5,0.2359
1465,0.269
1462.5,0.3228
1460,0.4363
1457.5,0.7646
1455,1.8163
1452.5,3.2309
1450,2.2233
1447.5,1.6154
1445,1.2397
1442.5,0.929
1440,0.7132
1437.5,0.5456
1435,0.3942
1432.5,0.2947
1430,0.2322
1427.5,0.1946
1425,0.1693
1422.5,0.1504
1420,0.1351
1417.5,0.1199
1415,0.1093
1412.5,0.1024
1410,0.099
1407.5,0.1003
1405,0.1042
1402.5,0.113
1400,0.1261
1397.5,0.1433
1395,0.1662
1392.5,0.1971
1390,0.2369
1387.5,0.2794
1385,0.3207
1382.5,0.3535
1380,0.3805
1377.5,0.4111
1375,0.4406
1372.5,0.45
1370,0.443
1367.5,0.4297
1365,0.4176
1362.5,0.4024
1360,0.3811
1357.5,0.357
1355,0.3391
1352.5,0.3315
1350,0.3272
1347.5,0.3179
1345,0.3005
1342.5,0.2799
1340,0.265
1337.5,0.265
1335,0.2844
1332.5,0.3165
1330,0.3438
1327.5,0.3474
1325,0.3327
1322.5,0.32
1320,0.317
1317.5,0.3245
1315,0.3381
1312.5,0.3461
1310,0.3405
1307.5,0.3247
1305,0.3067
1302.5,0.2881
1300,0.269
1297.5,0.2543
1295,0.2455
1292.5,0.2365
1290,0.2241
1287.5,0.2107
1285,0.202
1282.5,0.1977
1280,0.1917
1277.5,0.1797
1275,0.1642
1272.5,0.1509
1270,0.1421
1267.5,0.1379
1265,0.1372
1262.5,0.139
1260,0.1436
1257.5,0.1504
1255,0.159
1252.5,0.1678
1250,0.175
1247.5,0.1795
1245,0.1809
1242.5,0.1791
1240,0.175
1237.5,0.1692
1235,0.1632
1232.5,0.1583
1230,0.1547
1227.5,0.1513
1225,0.1464
1222.5,0.1398
1220,0.1337
1217.5,0.1306
1215,0.1322
1212.5,0.1385
1210,0.1493
1207.5,0.1651
1205,0.1861
1202.5,0.211
1200,0.2351
1197.5,0.2508
1195,0.2579
1192.5,0.2635
1190,0.2701
1187.5,0.285
1185,0.3242
1182.5,0.3753
1180,0.369
1177.5,0.2952
1175,0.2354
1172.5,0.2097
1170,0.1974
1167.5,0.1896
1165,0.1855
1162.5,0.191
1160,0.2212
1157.5,0.2902
1155,0.3483
1152.5,0.3078
1150,0.2104
1147.5,0.1496
1145,0.1201
1142.5,0.1007
1140,0.0883
1137.5,0.0836
1135,0.0843
1132.5,0.0886
1130,0.0952
1127.5,0.1033
1125,0.1131
1122.5,0.1247
1120,0.1392
1117.5,0.1565
1115,0.1721
1112.5,0.1791
1110,0.1766
1107.5,0.1696
1105,0.1636
1102.5,0.1615
1100,0.1618
1097.5,0.1637
1095,0.1658
1092.5,0.1684
1090,0.173
1087.5,0.1834
1085,0.203
1082.5,0.2328
1080,0.2664
1077.5,0.2987
1075,0.3476
1072.5,0.4079
1070,0.4413
1067.5,0.4299
1065,0.3826
1062.5,0.3301
1060,0.2906
1057.5,0.2653
1055,0.2481
1052.5,0.2363
1050,0.2273
1047.5,0.2201
1045,0.2144
1042.5,0.2116
1040,0.2178
1037.5,0.2524
1035,0.3642
1032.5,0.5929
1030,0.7945
1027.5,0.8183
1025,0.6409
1022.5,0.4851
1020,0.3924
1017.5,0.3286
1015,0.2825
1012.5,0.2492
1010,0.2279
1007.5,0.225
1005,0.2515
1002.5,0.2654
1000,0.2142
997.5,0.1769
995,0.1737
992.5,0.181
990,0.1942
987.5,0.2122
985,0.236
982.5,0.2573
980,0.2661
977.5,0.2575
975,0.2396
972.5,0.2313
970,0.2438
967.5,0.2693
965,0.286
962.5,0.2742
960,0.236
957.5,0.1982
955,0.1763
952.5,0.1675
950,0.1683
947.5,0.1774
945,0.19
942.5,0.1949
940,0.1857
937.5,0.1687
935,0.1522
932.5,0.1424
930,0.1417
927.5,0.1494
925,0.1626
922.5,0.1793
920,0.2001
917.5,0.2305
915,0.2808
912.5,0.3593
910,0.4532
907.5,0.5172
905,0.4985
902.5,0.4099
900,0.3063
897.5,0.2283
895,0.1822
892.5,0.1539
890,0.1322
887.5,0.1142
885,0.0992
882.5,0.088
880,0.0807
877.5,0.0776
875,0.0776
872.5,0.0805
870,0.0855
867.5,0.0924
865,0.1002
862.5,0.1088
860,0.1172
857.5,0.1261
855,0.1358
852.5,0.1492
850,0.1721
847.5,0.2041
845,0.2339
842.5,0.2496
840,0.2416
837.5,0.2085
835,0.1625
832.5,0.1232
830,0.0993
827.5,0.0849
825,0.0759
822.5,0.0712
820,0.0705
817.5,0.0738
815,0.0807
812.5,0.0906
810,0.1021
807.5,0.1142
805,0.1263
802.5,0.1393
800,0.1544
797.5,0.1712
795,0.1903
792.5,0.2138
790,0.2436
787.5,0.2804
785,0.3249
782.5,0.3847
780,0.474
777.5,0.6049
775,0.7838
772.5,1.0094
770,1.2872
767.5,1.5831
765,1.85
762.5,2.1026
760,2.33
757.5,2.4449
755,2.3429
752.5,2.1962
750,2.091
747.5,1.9719
745,1.6268
742.5,1.1939
740,0.8687
737.5,0.6426
735,0.4614
732.5,0.3163
730,0.2465
727.5,0.2281
725,0.226
722.5,0.2257
720,0.2262
717.5,0.2416
715,0.3085
712.5,0.4725
710,0.8359
707.5,1.6544
705,3.4169
702.5,3.8723
700,3.7583
697.5,3.8959
695,4.0315
692.5,1.7451
690,0.8801
687.5,0.5867
685,0.4338
682.5,0.3344
680,0.2886
677.5,0.2771
675,0.2655
672.5,0.2657
670,0.2578
667.5,0.236
665,0.216
662.5,0.185
660,0.1529
657.5,0.1339
655,0.1099
652.5,0.0924
650,0.0828
647.5,0.0781
645,0.0808
642.5,0.0901
640,0.1057
637.5,0.1275
635,0.1522
632.5,0.1743
630,0.1912
627.5,0.204
625,0.21
622.5,0.2213
620,0.2271
617.5,0.2018
615,0.1834
612.5,0.1678
610,0.154
607.5,0.1436
605,0.1371
602.5,0.1356
600,0.1389
597.5,0.1461
595,0.1569
592.5,0.1706
590,0.1864
587.5,0.2035
585,0.224
582.5,0.2498
580,0.2829
577.5,0.3236
575,0.3685
572.5,0.4159
570,0.4597
567.5,0.4999
565,0.5377
562.5,0.5756
560,0.613
557.5,0.652
555,0.6922
552.5,0.7359
550,0.794
547.5,0.8696
545,0.9611
542.5,1.0515
540,1.093
537.5,1.0333
535,0.8737
532.5,0.6864
530,0.5279
527.5,0.4062
525,0.3133
522.5,0.2505
520,0.2101
517.5,0.1833
515,0.1657
512.5,0.1527
510,0.1423
507.5,0.135
505,0.1317
502.5,0.1317
500,0.1316