File: Calibration/FTIR-PolystyreneRAL(1.5mil)_2cm-1.csv
3.999158e+002,1.818494e-002
4.023264e+002,2.645123e-002
4.047370e+002,3.155924e-002
4.071476e+002,3.230443e-002
4.095581e+002,3.053981e-002
4.119687e+002,2.939922e-002
4.143793e+002,3.169726e-002
4.167899e+002,3.409360e-002
4.192005e+002,3.456045e-002
4.216111e+002,4.615815e-002
4.240216e+002,5.178800e-002
4.264322e+002,5.839345e-002
4.288428e+002,6.451931e-002
4.312534e+002,7.064559e-002
4.336640e+002,7.666685e-002
4.360746e+002,8.048041e-002
4.384851e+002,8.548068e-002
4.408957e+002,8.828021e-002
4.433063e+002,8.999499e-002
4.457169e+002,9.074834e-002
4.481275e+002,8.989371e-002
4.505381e+002,8.852978e-002
4.529486e+002,8.467145e-002
4.553592e+002,8.074135e-002
4.577698e+002,7.349328e-002
4.601804e+002,7.126492e-002
4.625910e+002,6.612808e-002
4.650016e+002,6.169729e-002
4.674121e+002,5.688947e-002
4.698227e+002,5.234772e-002
4.722333e+002,4.732697e-002
4.746439e+002,4.535124e-002
4.770545e+002,4.327872e-002
4.794651e+002,4.278298e-002
4.818756e+002,4.425929e-002
4.842862e+002,4.607971e-002
4.866968e+002,5.052579e-002
4.891074e+002,5.624202e-002
4.915180e+002,6.305140e-002
4.939286e+002,7.222749e-002
4.963391e+002,8.295061e-002
4.987497e+002,9.450708e-002
5.011603e+002,1.068364e-001
5.035709e+002,1.213843e-001
5.059815e+002,1.356201e-001
5.083921e+002,1.515993e-001
5.108026e+002,1.667951e-001
5.132132e+002,1.812680e-001
5.156238e+002,1.948794e-001
5.180344e+002,2.091757e-001
5.204449e+002,2.286208e-001
5.228555e+002,2.557978e-001
5.252661e+002,2.979236e-001
5.276767e+002,3.646938e-001
5.300873e+002,4.621628e-001
5.324979e+002,5.975002e-001
5.349084e+002,7.580722e-001
5.373190e+002,8.857524e-001
5.397296e+002,9.282730e-001
5.421402e+002,8.898878e-001
5.445508e+002,8.134778e-001
5.469614e+002,7.362881e-001
5.493719e+002,6.717485e-001
5.517825e+002,6.223311e-001
5.541931e+002,5.829490e-001
5.566037e+002,5.484299e-001
5.590143e+002,5.132980e-001
5.614249e+002,4.786580e-001
5.638354e+002,4.452051e-001
5.662460e+002,4.113527e-001
5.686566e+002,3.770396e-001
5.710672e+002,3.408751e-001
5.734778e+002,3.025761e-001
5.758884e+002,2.649623e-001
5.782990e+002,2.325027e-001
5.807095e+002,2.065309e-001
5.831201e+002,1.892607e-001
5.855307e+002,1.789288e-001
5.879413e+002,1.731562e-001
5.903519e+002,1.689845e-001
5.927625e+002,1.654681e-001
5.951730e+002,1.618846e-001
5.975836e+002,1.583860e-001
5.999942e+002,1.552411e-001
6.024048e+002,1.522039e-001
6.048154e+002,1.505700e-001
6.072260e+002,1.504412e-001
6.096365e+002,1.518115e-001
6.120471e+002,1.545803e-001
6.144577e+002,1.587160e-001
6.168683e+002,1.632025e-001
6.192789e+002,1.774688e-001
6.216895e+002,1.768453e-001
6.241000e+002,1.606750e-001
6.265106e+002,1.525115e-001
6.289212e+002,1.410788e-001
6.313318e+002,1.275802e-001
6.337424e+002,1.126029e-001
6.361530e+002,9.637912e-002
6.385635e+002,8.270494e-002
6.409741e+002,7.509517e-002
6.433847e+002,7.255042e-002
6.457953e+002,7.426632e-002
6.482059e+002,7.950405e-002
6.506165e+002,8.787835e-002
6.530270e+002,9.902750e-002
6.554376e+002,1.128165e-001
6.578482e+002,1.288979e-001
6.602588e+002,1.471355e-001
6.626694e+002,1.659300e-001
6.650800e+002,1.844890e-001
6.674905e+002,1.955923e-001
6.699011e+002,2.098169e-001
6.723117e+002,2.164231e-001
6.747223e+002,2.205548e-001
6.771329e+002,2.256485e-001
6.795435e+002,2.396495e-001
6.819540e+002,2.721439e-001
6.843646e+002,3.368097e-001
6.867752e+002,4.502030e-001
6.891858e+002,6.566932e-001
6.915964e+002,1.179332e+000
6.940070e+002,2.051610e+000
6.964175e+002,2.203511e+000
6.988281e+002,2.211391e+000
7.012387e+002,2.184245e+000
7.036493e+002,2.189624e+000
7.060599e+002,1.823748e+000
7.084705e+002,1.000866e+000
7.108810e+002,5.288460e-001
7.132916e+002,3.186915e-001
7.157022e+002,2.318919e-001
7.181128e+002,1.991138e-001
7.205234e+002,1.862142e-001
7.229340e+002,1.808087e-001
7.253445e+002,1.788617e-001
7.277551e+002,1.845823e-001
7.301657e+002,2.089199e-001
7.325763e+002,2.742238e-001
7.349869e+002,3.909861e-001
7.373975e+002,5.307761e-001
7.398080e+002,7.049267e-001
7.422186e+002,9.513330e-001
7.446292e+002,1.267927e+000
7.470398e+002,1.514383e+000
7.494504e+002,1.616509e+000
7.518610e+002,1.687461e+000
7.542715e+002,1.775591e+000
7.566821e+002,1.828213e+000
7.590927e+002,1.789052e+000
7.615033e+002,1.672237e+000
7.639139e+002,1.512753e+000
7.663245e+002,1.341076e+000
7.687350e+002,1.136335e+000
7.711456e+002,9.153023e-001
7.735562e+002,7.233760e-001
7.759668e+002,5.648783e-001
7.783774e+002,4.410414e-001
7.807880e+002,3.545054e-001
7.831985e+002,2.958862e-001
7.856091e+002,2.524570e-001
7.880197e+002,2.166504e-001
7.904303e+002,1.857297e-001
7.928409e+002,1.608428e-001
7.952515e+002,1.426109e-001
7.976620e+002,1.292541e-001
8.000726e+002,1.197711e-001
8.024832e+002,1.129108e-001
8.048938e+002,1.081644e-001
8.073044e+002,1.041858e-001
8.097150e+002,9.957890e-002
8.121255e+002,9.432725e-002
8.145361e+002,8.908492e-002
8.169467e+002,8.398011e-002
8.193573e+002,7.951520e-002
8.217679e+002,7.636075e-002
8.241785e+002,7.409298e-002
8.265891e+002,7.337219e-002
8.289996e+002,7.551786e-002
8.314102e+002,8.329318e-002
8.338208e+002,1.028190e-001
8.362314e+002,1.349201e-001
8.386420e+002,1.658298e-001
8.410526e+002,1.810549e-001
8.434631e+002,1.765940e-001
8.458737e+002,1.563792e-001
8.482843e+002,1.293406e-001
8.506949e+002,1.063839e-001
8.531055e+002,9.429559e-002
8.555161e+002,9.013956e-002
8.579266e+002,8.975533e-002
8.603372e+002,9.076786e-002
8.627478e+002,9.240245e-002
8.651584e+002,9.415876e-002
8.675690e+002,9.585709e-002
8.699796e+002,9.707112e-002
8.723901e+002,9.808595e-002
8.748007e+002,9.870373e-002
8.772113e+002,9.926530e-002
8.796219e+002,9.994023e-002
8.820325e+002,1.011627e-001
8.844431e+002,1.034017e-001
8.868536e+002,1.066217e-001
8.892642e+002,1.114012e-001
8.916748e+002,1.182190e-001
8.940854e+002,1.298988e-001
8.964960e+002,1.539332e-001
8.989066e+002,2.046300e-001
9.013171e+002,2.861554e-001
9.037277e+002,3.723108e-001
9.061383e+002,4.162460e-001
9.085489e+002,3.893053e-001
9.109595e+002,3.154676e-001
9.133700e+002,2.385519e-001
9.157806e+002,1.825620e-001
9.181912e+002,1.499201e-001
9.206018e+002,1.325395e-001
9.230123e+002,1.228036e-001
9.254230e+002,1.173845e-001
9.278335e+002,1.163135e-001
9.302441e+002,1.203225e-001
9.326547e+002,1.303178e-001
9.350653e+002,1.456492e-001
9.374758e+002,1.631846e-001
9.398865e+002,1.793657e-001
9.422970e+002,1.880805e-001
9.447076e+002,1.856992e-001
9.471182e+002,1.768408e-001
9.495288e+002,1.684666e-001
9.519393e+002,1.641430e-001
9.543500e+002,1.648601e-001
9.567605e+002,1.732494e-001
9.591711e+002,1.938163e-001
9.615817e+002,2.212442e-001
9.639923e+002,2.343193e-001
9.664028e+002,2.238754e-001
9.688135e+002,1.997107e-001
9.712240e+002,1.794662e-001
9.736346e+002,1.756257e-001
9.760452e+002,1.867174e-001
9.784558e+002,1.984004e-001
9.808663e+002,1.983973e-001
9.832770e+002,1.863390e-001
9.856875e+002,1.683948e-001
9.880981e+002,1.535959e-001
9.905087e+002,1.454800e-001
9.929193e+002,1.421767e-001
9.953298e+002,1.445271e-001
9.977405e+002,1.565511e-001
1.000151e+003,1.964519e-001
1.002562e+003,2.343485e-001
1.004972e+003,2.219700e-001
1.007383e+003,2.052809e-001
1.009793e+003,2.096618e-001
1.012204e+003,2.251387e-001
1.014615e+003,2.480536e-001
1.017025e+003,2.791005e-001
1.019436e+003,3.220629e-001
1.021846e+003,3.843368e-001
1.024257e+003,4.902616e-001
1.026667e+003,6.378500e-001
1.029078e+003,6.650105e-001
1.031489e+003,5.514981e-001
1.033899e+003,3.629195e-001
1.036310e+003,2.394985e-001
1.038720e+003,1.888170e-001
1.041131e+003,1.714965e-001
1.043542e+003,1.668921e-001
1.045952e+003,1.678179e-001
1.048363e+003,1.719244e-001
1.050773e+003,1.785845e-001
1.053184e+003,1.882544e-001
1.055594e+003,2.012724e-001
1.058005e+003,2.191198e-001
1.060416e+003,2.444324e-001
1.062826e+003,2.799466e-001
1.065237e+003,3.232896e-001
1.067647e+003,3.571813e-001
1.070058e+003,3.602719e-001
1.072469e+003,3.322257e-001
1.074879e+003,2.866516e-001
1.077290e+003,2.512151e-001
1.079700e+003,2.284611e-001
1.082111e+003,2.045254e-001
1.084521e+003,1.819328e-001
1.086932e+003,1.655402e-001
1.089343e+003,1.553349e-001
1.091753e+003,1.488538e-001
1.094164e+003,1.437463e-001
1.096574e+003,1.385998e-001
1.098985e+003,1.334536e-001
1.101396e+003,1.290684e-001
1.103806e+003,1.267165e-001
1.106217e+003,1.276969e-001
1.108627e+003,1.318591e-001
1.111038e+003,1.357719e-001
1.113448e+003,1.346841e-001
1.115859e+003,1.264714e-001
1.118270e+003,1.146441e-001
1.120680e+003,1.046860e-001
1.123091e+003,9.847477e-002
1.125501e+003,9.510461e-002
1.127912e+003,9.332747e-002
1.130323e+003,9.251687e-002
1.132733e+003,9.273172e-002
1.135144e+003,9.410761e-002
1.137554e+003,9.733061e-002
1.139965e+003,1.040104e-001
1.142375e+003,1.152946e-001
1.144786e+003,1.317228e-001
1.147197e+003,1.556819e-001
1.149607e+003,2.018044e-001
1.152018e+003,2.785731e-001
1.154428e+003,3.192422e-001
1.156839e+003,2.797454e-001
1.159250e+003,2.174266e-001
1.161660e+003,1.809676e-001
1.164071e+003,1.661084e-001
1.166481e+003,1.611917e-001
1.168892e+003,1.614182e-001
1.171302e+003,1.663455e-001
1.173713e+003,1.792661e-001
1.176124e+003,2.136073e-001
1.178534e+003,2.773967e-001
1.180945e+003,3.158749e-001
1.183355e+003,2.916640e-001
1.185766e+003,2.521850e-001
1.188177e+003,2.345251e-001
1.190587e+003,2.317898e-001
1.192998e+003,2.326822e-001
1.195408e+003,2.342602e-001
1.197819e+003,2.331885e-001
1.200229e+003,2.249114e-001
1.202640e+003,2.112397e-001
1.205051e+003,1.974372e-001
1.207461e+003,1.857582e-001
1.209872e+003,1.757708e-001
1.212282e+003,1.674255e-001
1.214693e+003,1.606308e-001
1.217104e+003,1.557783e-001
1.219514e+003,1.528904e-001
1.221925e+003,1.517500e-001
1.224335e+003,1.508705e-001
1.226746e+003,1.488929e-001
1.229156e+003,1.454933e-001
1.231567e+003,1.420157e-001
1.233978e+003,1.395772e-001
1.236388e+003,1.388957e-001
1.238799e+003,1.396950e-001
1.241209e+003,1.407819e-001
1.243620e+003,1.414219e-001
1.246031e+003,1.410699e-001
1.248441e+003,1.396130e-001
1.250852e+003,1.371118e-001
1.253262e+003,1.343226e-001
1.255673e+003,1.320369e-001
1.258083e+003,1.310375e-001
1.260494e+003,1.315878e-001
1.262905e+003,1.338165e-001
1.265315e+003,1.371941e-001
1.267726e+003,1.416997e-001
1.270136e+003,1.480370e-001
1.272547e+003,1.563541e-001
1.274958e+003,1.669651e-001
1.277368e+003,1.781410e-001
1.279779e+003,1.854992e-001
1.282189e+003,1.874433e-001
1.284600e+003,1.872321e-001
1.287010e+003,1.891536e-001
1.289421e+003,1.943370e-001
1.291832e+003,1.993881e-001
1.294242e+003,2.020973e-001
1.296653e+003,2.039428e-001
1.299063e+003,2.098344e-001
1.301474e+003,2.213964e-001
1.303885e+003,2.345312e-001
1.306295e+003,2.478704e-001
1.308706e+003,2.619708e-001
1.311116e+003,2.715840e-001
1.313527e+003,2.706553e-001
1.315938e+003,2.625989e-001
1.318348e+003,2.565633e-001
1.320759e+003,2.584445e-001
1.323169e+003,2.684777e-001
1.325580e+003,2.833504e-001
1.327990e+003,2.941866e-001
1.330401e+003,2.865979e-001
1.332812e+003,2.652031e-001
1.335222e+003,2.451058e-001
1.337633e+003,2.365838e-001
1.340043e+003,2.413457e-001
1.342454e+003,2.550028e-001
1.344865e+003,2.709578e-001
1.347275e+003,2.829640e-001
1.349686e+003,2.882244e-001
1.352096e+003,2.891129e-001
1.354507e+003,2.915014e-001
1.356917e+003,3.012664e-001
1.359328e+003,3.171733e-001
1.361739e+003,3.312908e-001
1.364149e+003,3.407273e-001
1.366560e+003,3.487711e-001
1.368970e+003,3.574664e-001
1.371381e+003,3.640994e-001
1.373792e+003,3.606683e-001
1.376202e+003,3.411003e-001
1.378613e+003,3.151620e-001
1.381023e+003,2.931340e-001
1.383434e+003,2.703146e-001
1.385844e+003,2.409528e-001
1.388255e+003,2.068829e-001
1.390666e+003,1.760853e-001
1.393076e+003,1.516641e-001
1.395487e+003,1.342738e-001
1.397897e+003,1.232111e-001
1.400308e+003,1.161004e-001
1.402719e+003,1.116921e-001
1.405129e+003,1.087988e-001
1.407540e+003,1.071604e-001
1.409950e+003,1.064822e-001
1.412361e+003,1.069934e-001
1.414771e+003,1.086516e-001
1.417182e+003,1.114432e-001
1.419593e+003,1.153431e-001
1.422003e+003,1.215188e-001
1.424414e+003,1.307995e-001
1.426824e+003,1.459765e-001
1.429235e+003,1.725842e-001
1.431645e+003,2.197817e-001
1.434056e+003,2.967789e-001
1.436467e+003,4.049307e-001
1.438877e+003,5.328106e-001
1.441288e+003,6.816711e-001
1.443698e+003,8.861309e-001
1.446109e+003,1.143473e+000
1.448520e+003,1.443392e+000
1.450930e+003,1.894991e+000
1.453341e+003,1.909090e+000
1.455751e+003,1.050041e+000
1.458162e+003,4.759877e-001
1.460572e+003,3.039696e-001
1.462983e+003,2.368359e-001
1.465394e+003,2.031345e-001
1.467804e+003,1.854526e-001
1.470215e+003,1.755572e-001
1.472625e+003,1.723991e-001
1.475036e+003,1.746520e-001
1.477447e+003,1.854694e-001
1.479857e+003,2.126859e-001
1.482268e+003,2.757974e-001
1.484678e+003,4.157761e-001
1.487089e+003,6.656965e-001
1.489499e+003,1.173161e+000
1.491910e+003,1.958854e+000
1.494321e+003,1.812582e+000
1.496731e+003,8.857536e-001
1.499142e+003,4.289119e-001
1.501552e+003,2.577969e-001
1.503963e+003,1.843591e-001
1.506374e+003,1.462569e-001
1.508784e+003,1.265089e-001
1.511195e+003,1.140695e-001
1.513605e+003,1.056824e-001
1.516016e+003,9.946048e-002
1.518426e+003,9.570564e-002
1.520837e+003,9.326216e-002
1.523248e+003,9.372734e-002
1.525658e+003,9.547334e-002
1.528069e+003,9.987246e-002
1.530479e+003,1.069053e-001
1.532890e+003,1.162364e-001
1.535301e+003,1.276792e-001
1.537711e+003,1.364999e-001
1.540122e+003,1.424111e-001
1.542532e+003,1.430036e-001
1.544943e+003,1.377354e-001
1.547353e+003,1.291619e-001
1.549764e+003,1.189451e-001
1.552175e+003,1.093115e-001
1.554585e+003,1.004749e-001
1.556996e+003,9.279642e-002
1.559406e+003,8.685577e-002
1.561817e+003,8.396442e-002
1.564228e+003,8.278427e-002
1.566638e+003,8.415253e-002
1.569049e+003,8.712153e-002
1.571459e+003,9.690757e-002
1.573870e+003,1.126524e-001
1.576280e+003,1.355644e-001
1.578691e+003,1.873126e-001
1.581102e+003,3.180359e-001
1.583512e+003,3.649623e-001
1.585923e+003,2.584254e-001
1.588333e+003,2.182149e-001
1.590744e+003,2.510421e-001
1.593155e+003,3.231044e-001
1.595565e+003,4.555659e-001
1.597976e+003,7.164425e-001
1.600386e+003,9.826625e-001
1.602797e+003,8.851942e-001
1.605207e+003,5.781852e-001
1.607618e+003,3.360744e-001
1.610029e+003,2.130637e-001
1.612439e+003,1.588344e-001
1.614850e+003,1.325555e-001
1.617260e+003,1.174067e-001
1.619671e+003,1.095436e-001
1.622082e+003,1.045575e-001
1.624492e+003,1.002548e-001
1.626903e+003,9.579854e-002
1.629313e+003,9.218690e-002
1.631724e+003,8.931966e-002
1.634134e+003,8.674320e-002
1.636545e+003,8.571275e-002
1.638956e+003,8.498246e-002
1.641366e+003,8.481241e-002
1.643777e+003,8.516702e-002
1.646187e+003,8.622987e-002
1.648598e+003,8.822288e-002
1.651009e+003,8.936769e-002
1.653419e+003,9.179929e-002
1.655830e+003,9.575261e-002
1.658240e+003,9.991708e-002
1.660651e+003,1.044728e-001
1.663061e+003,1.083391e-001
1.665472e+003,1.108150e-001
1.667883e+003,1.112592e-001
1.670293e+003,1.107585e-001
1.672704e+003,1.094218e-001
1.675114e+003,1.073889e-001
1.677525e+003,1.058255e-001
1.679936e+003,1.036636e-001
1.682346e+003,1.010959e-001
1.684757e+003,9.833704e-002
1.687167e+003,9.655095e-002
1.689578e+003,9.436990e-002
1.691988e+003,9.287880e-002
1.694399e+003,9.254811e-002
1.696810e+003,9.461361e-002
1.699220e+003,9.591068e-002
1.701631e+003,9.862452e-002
1.704041e+003,9.933306e-002
1.706452e+003,9.936401e-002
1.708863e+003,9.902592e-002
1.711273e+003,9.869970e-002
1.713684e+003,9.865870e-002
1.716094e+003,9.928304e-002
1.718505e+003,1.012158e-001
1.720915e+003,1.035601e-001
1.723326e+003,1.065810e-001
1.725737e+003,1.104857e-001
1.728147e+003,1.150716e-001
1.730558e+003,1.208789e-001
1.732968e+003,1.275344e-001
1.735379e+003,1.374158e-001
1.737790e+003,1.459989e-001
1.740200e+003,1.535972e-001
1.742611e+003,1.578951e-001
1.745021e+003,1.586015e-001
1.747432e+003,1.548103e-001
1.749842e+003,1.474784e-001
1.752253e+003,1.374071e-001
1.754664e+003,1.261601e-001
1.757074e+003,1.148445e-001
1.759485e+003,1.052836e-001
1.761895e+003,9.771073e-002
1.764306e+003,9.299873e-002
1.766717e+003,9.050365e-002
1.769127e+003,9.051834e-002
1.771538e+003,9.228814e-002
1.773948e+003,9.457682e-002
1.776359e+003,9.372146e-002
1.778769e+003,9.079975e-002
1.781180e+003,8.852113e-002
1.783591e+003,8.895982e-002
1.786001e+003,9.314574e-002
1.788412e+003,1.015500e-001
1.790822e+003,1.146483e-001
1.793233e+003,1.326375e-001
1.795644e+003,1.516168e-001
1.798054e+003,1.678280e-001
1.800465e+003,1.774082e-001
1.802875e+003,1.787451e-001
1.805286e+003,1.731655e-001
1.807696e+003,1.634399e-001
1.810107e+003,1.521979e-001
1.812518e+003,1.409242e-001
1.814928e+003,1.301683e-001
1.817339e+003,1.197942e-001
1.819749e+003,1.096545e-001
1.822160e+003,9.972299e-002
1.824571e+003,9.020404e-002
1.826981e+003,8.154260e-002
1.829392e+003,7.405852e-002
1.831802e+003,6.832568e-002
1.834213e+003,6.424693e-002
1.836623e+003,6.186640e-002
1.839034e+003,6.098784e-002
1.841445e+003,6.134763e-002
1.843855e+003,6.248640e-002
1.846266e+003,6.526463e-002
1.848676e+003,6.913789e-002
1.851087e+003,7.478962e-002
1.853498e+003,8.291620e-002
1.855908e+003,9.424973e-002
1.858319e+003,1.092941e-001
1.860729e+003,1.272383e-001
1.863140e+003,1.456663e-001
1.865550e+003,1.609538e-001
1.867961e+003,1.699803e-001
1.870372e+003,1.725094e-001
1.872782e+003,1.698675e-001
1.875193e+003,1.648459e-001
1.877603e+003,1.595329e-001
1.880014e+003,1.545355e-001
1.882425e+003,1.491518e-001
1.884835e+003,1.422560e-001
1.887246e+003,1.332748e-001
1.889656e+003,1.222255e-001
1.892067e+003,1.102872e-001
1.894477e+003,9.857645e-002
1.896888e+003,8.827509e-002
1.899299e+003,7.991193e-002
1.901709e+003,7.357696e-002
1.904120e+003,6.911622e-002
1.906530e+003,6.613159e-002
1.908941e+003,6.437991e-002
1.911352e+003,6.384355e-002
1.913762e+003,6.467868e-002
1.916173e+003,6.686348e-002
1.918583e+003,7.066590e-002
1.920994e+003,7.571846e-002
1.923404e+003,8.195993e-002
1.925815e+003,8.954923e-002
1.928226e+003,9.973354e-002
1.930636e+003,1.144840e-001
1.933047e+003,1.353270e-001
1.935457e+003,1.612224e-001
1.937868e+003,1.872982e-001
1.940279e+003,2.061935e-001
1.942689e+003,2.126266e-001
1.945100e+003,2.063939e-001
1.947510e+003,1.926034e-001
1.949921e+003,1.777906e-001
1.952331e+003,1.660231e-001
1.954742e+003,1.577253e-001
1.957153e+003,1.510933e-001
1.959563e+003,1.436403e-001
1.961974e+003,1.338008e-001
1.964384e+003,1.214272e-001
1.966795e+003,1.077760e-001
1.969206e+003,9.474312e-002
1.971616e+003,8.409385e-002
1.974027e+003,7.687290e-002
1.976437e+003,7.306970e-002
1.978848e+003,7.143720e-002
1.981258e+003,7.069343e-002
1.983669e+003,7.023467e-002
1.986080e+003,6.854096e-002
1.988490e+003,6.473771e-002
1.990901e+003,6.028808e-002
1.993311e+003,5.654034e-002
1.995722e+003,5.387785e-002
1.998133e+003,5.217047e-002
2.000543e+003,5.128369e-002
2.002954e+003,5.096896e-002
2.005364e+003,5.094984e-002
2.007775e+003,5.102959e-002
2.010185e+003,5.101635e-002
2.012596e+003,5.094329e-002
2.015007e+003,5.101781e-002
2.017417e+003,5.136156e-002
2.019828e+003,5.195725e-002
2.022238e+003,5.270453e-002
2.024649e+003,5.361093e-002
2.027060e+003,5.441987e-002
2.029470e+003,5.513724e-002
2.031881e+003,5.557211e-002
2.034291e+003,5.572676e-002
2.036702e+003,5.572439e-002
2.039112e+003,5.560932e-002
2.041523e+003,5.543759e-002
2.043934e+003,5.524169e-002
2.046344e+003,5.496427e-002
2.048755e+003,5.453590e-002
2.051166e+003,5.405718e-002
2.053576e+003,5.344088e-002
2.055987e+003,5.275324e-002
2.058397e+003,5.204853e-002
2.060808e+003,5.122986e-002
2.063218e+003,5.043821e-002
2.065629e+003,4.965395e-002
2.068040e+003,4.891242e-002
2.070450e+003,4.820555e-002
2.072861e+003,4.749693e-002
2.075271e+003,4.688529e-002
2.077682e+003,4.645147e-002
2.080093e+003,4.600514e-002
2.082503e+003,4.600301e-002
2.084914e+003,4.605620e-002
2.087324e+003,4.638145e-002
2.089735e+003,4.686156e-002
2.092145e+003,4.750692e-002
2.094556e+003,4.831156e-002
2.096967e+003,4.922278e-002
2.099377e+003,5.018906e-002
2.101788e+003,5.117834e-002
2.104198e+003,5.215212e-002
2.106609e+003,5.312192e-002
2.109020e+003,5.408454e-002
2.111430e+003,5.497164e-002
2.113841e+003,5.567975e-002
2.116251e+003,5.619828e-002
2.118662e+003,5.656672e-002
2.121072e+003,5.673422e-002
2.123483e+003,5.680125e-002
2.125894e+003,5.674574e-002
2.128304e+003,5.656472e-002
2.130715e+003,5.632218e-002
2.133125e+003,5.602804e-002
2.135536e+003,5.561648e-002
2.137947e+003,5.521226e-002
2.140357e+003,5.471374e-002
2.142768e+003,5.413025e-002
2.145178e+003,5.351744e-002
2.147589e+003,5.287395e-002
2.149999e+003,5.224789e-002
2.152410e+003,5.170685e-002
2.154821e+003,5.121960e-002
2.157231e+003,5.076668e-002
2.159642e+003,5.045303e-002
2.162052e+003,5.032818e-002
2.164463e+003,5.039114e-002
2.166874e+003,5.063017e-002
2.169284e+003,5.110975e-002
2.171695e+003,5.177631e-002
2.174105e+003,5.270550e-002
2.176516e+003,5.389079e-002
2.178926e+003,5.536848e-002
2.181337e+003,5.693492e-002
2.183748e+003,5.816337e-002
2.186158e+003,5.884863e-002
2.188569e+003,5.924007e-002
2.190979e+003,5.949037e-002
2.193390e+003,5.978089e-002
2.195801e+003,6.012518e-002
2.198211e+003,6.050086e-002
2.200622e+003,6.099730e-002
2.203032e+003,6.153420e-002
2.205443e+003,6.211500e-002
2.207853e+003,6.259244e-002
2.210264e+003,6.265746e-002
2.212675e+003,6.226274e-002
2.215085e+003,6.166276e-002
2.217496e+003,6.102098e-002
2.219906e+003,6.047328e-002
2.222317e+003,5.994457e-002
2.224728e+003,5.951587e-002
2.227138e+003,5.908504e-002
2.229549e+003,5.859450e-002
2.231959e+003,5.803027e-002
2.234370e+003,5.756894e-002
2.236780e+003,5.737148e-002
2.239191e+003,5.738293e-002
2.241602e+003,5.760175e-002
2.244012e+003,5.821239e-002
2.246423e+003,5.910524e-002
2.248833e+003,6.009489e-002
2.251244e+003,6.099959e-002
2.253655e+003,6.175557e-002
2.256065e+003,6.225881e-002
2.258476e+003,6.250373e-002
2.260886e+003,6.260652e-002
2.263297e+003,6.274658e-002
2.265707e+003,6.294559e-002
2.268118e+003,6.310384e-002
2.270529e+003,6.332582e-002
2.272939e+003,6.373344e-002
2.275350e+003,6.418128e-002
2.277760e+003,6.470449e-002
2.280171e+003,6.538355e-002
2.282582e+003,6.627889e-002
2.284992e+003,6.740665e-002
2.287403e+003,6.853122e-002
2.289813e+003,6.947441e-002
2.292224e+003,6.990477e-002
2.294634e+003,6.962273e-002
2.297045e+003,6.891910e-002
2.299456e+003,6.839956e-002
2.301866e+003,6.884260e-002
2.304277e+003,7.076515e-002
2.306687e+003,7.416093e-002
2.309098e+003,7.738715e-002
2.311509e+003,7.799774e-002
2.313919e+003,7.507236e-002
2.316330e+003,7.062536e-002
2.318740e+003,6.712267e-002
2.321151e+003,6.460301e-002
2.323561e+003,6.367888e-002
2.325972e+003,6.398723e-002
2.328383e+003,6.683489e-002
2.330793e+003,7.201553e-002
2.333204e+003,7.854012e-002
2.335614e+003,8.285532e-002
2.338025e+003,8.227344e-002
2.340436e+003,7.877924e-002
2.342846e+003,7.567725e-002
2.345257e+003,7.437558e-002
2.347667e+003,7.359741e-002
2.350078e+003,7.367714e-002
2.352488e+003,7.282081e-002
2.354899e+003,7.151540e-002
2.357310e+003,7.078468e-002
2.359720e+003,7.067277e-002
2.362131e+003,6.998752e-002
2.364541e+003,6.935879e-002
2.366952e+003,6.889510e-002
2.369363e+003,6.941321e-002
2.371773e+003,7.024207e-002
2.374184e+003,7.108481e-002
2.376594e+003,7.126523e-002
2.379005e+003,7.050086e-002
2.381415e+003,6.943906e-002
2.383826e+003,6.841833e-002
2.386237e+003,6.754502e-002
2.388647e+003,6.678507e-002
2.391058e+003,6.605902e-002
2.393468e+003,6.535097e-002
2.395879e+003,6.473367e-002
2.398289e+003,6.405915e-002
2.400700e+003,6.339165e-002
2.403111e+003,6.271140e-002
2.405521e+003,6.213588e-002
2.407932e+003,6.160025e-002
2.410342e+003,6.115244e-002
2.412753e+003,6.094018e-002
2.415164e+003,6.100500e-002
2.417574e+003,6.123514e-002
2.419985e+003,6.162282e-002
2.422395e+003,6.225746e-002
2.424806e+003,6.304584e-002
2.427216e+003,6.397536e-002
2.429627e+003,6.501256e-002
2.432038e+003,6.606006e-002
2.434448e+003,6.705171e-002
2.436859e+003,6.791171e-002
2.439269e+003,6.866074e-002
2.441680e+003,6.932811e-002
2.444091e+003,6.996202e-002
2.446501e+003,7.049225e-002
2.448912e+003,7.096119e-002
2.451322e+003,7.128674e-002
2.453733e+003,7.120456e-002
2.456143e+003,7.083726e-002
2.458554e+003,7.047670e-002
2.460965e+003,7.030490e-002
2.463375e+003,7.020047e-002
2.465786e+003,7.017072e-002
2.468196e+003,7.026965e-002
2.470607e+003,7.049864e-002
2.473017e+003,7.078288e-002
2.475428e+003,7.112513e-002
2.477839e+003,7.152396e-002
2.480249e+003,7.192609e-002
2.482660e+003,7.222196e-002
2.485070e+003,7.238407e-002
2.487481e+003,7.261692e-002
2.489892e+003,7.307095e-002
2.492302e+003,7.352523e-002
2.494713e+003,7.390946e-002
2.497123e+003,7.441220e-002
2.499534e+003,7.520385e-002
2.501944e+003,7.630952e-002
2.504355e+003,7.757846e-002
2.506766e+003,7.869591e-002
2.509176e+003,7.951452e-002
2.511587e+003,7.996041e-002
2.513997e+003,8.029337e-002
2.516408e+003,8.065903e-002
2.518819e+003,8.102787e-002
2.521229e+003,8.122788e-002
2.523640e+003,8.124259e-002
2.526050e+003,8.121223e-002
2.528461e+003,8.112080e-002
2.530871e+003,8.111469e-002
2.533282e+003,8.117571e-002
2.535693e+003,8.128034e-002
2.538103e+003,8.156495e-002
2.540514e+003,8.208143e-002
2.542924e+003,8.269937e-002
2.545335e+003,8.282208e-002
2.547746e+003,8.211585e-002
2.550156e+003,8.100671e-002
2.552567e+003,7.990333e-002
2.554977e+003,7.908717e-002
2.557388e+003,7.847414e-002
2.559798e+003,7.806547e-002
2.562209e+003,7.763883e-002
2.564620e+003,7.719535e-002
2.567030e+003,7.677870e-002
2.569441e+003,7.664776e-002
2.571851e+003,7.702690e-002
2.574262e+003,7.834856e-002
2.576673e+003,8.104073e-002
2.579083e+003,8.399176e-002
2.581494e+003,8.439596e-002
2.583904e+003,8.240826e-002
2.586315e+003,8.063070e-002
2.588725e+003,8.011905e-002
2.591136e+003,8.100148e-002
2.593547e+003,8.314465e-002
2.595957e+003,8.636381e-002
2.598368e+003,9.004053e-002
2.600778e+003,9.293769e-002
2.603189e+003,9.378519e-002
2.605600e+003,9.236465e-002
2.608010e+003,8.990736e-002
2.610421e+003,8.767723e-002
2.612831e+003,8.631559e-002
2.615242e+003,8.580713e-002
2.617652e+003,8.603800e-002
2.620063e+003,8.687677e-002
2.622474e+003,8.828077e-002
2.624884e+003,9.044991e-002
2.627295e+003,9.351087e-002
2.629705e+003,9.627728e-002
2.632116e+003,9.601156e-002
2.634527e+003,9.303071e-002
2.636937e+003,8.970425e-002
2.639348e+003,8.730384e-002
2.641758e+003,8.604220e-002
2.644169e+003,8.544454e-002
2.646579e+003,8.496526e-002
2.648990e+003,8.450788e-002
2.651401e+003,8.409373e-002
2.653811e+003,8.374699e-002
2.656222e+003,8.354750e-002
2.658632e+003,8.344610e-002
2.661043e+003,8.348979e-002
2.663454e+003,8.386522e-002
2.665864e+003,8.459838e-002
2.668275e+003,8.557998e-002
2.670685e+003,8.639696e-002
2.673096e+003,8.694959e-002
2.675506e+003,8.742397e-002
2.677917e+003,8.801418e-002
2.680328e+003,8.872463e-002
2.682738e+003,8.944805e-002
2.685149e+003,9.007343e-002
2.687559e+003,9.056197e-002
2.689970e+003,9.083635e-002
2.692381e+003,9.091130e-002
2.694791e+003,9.083610e-002
2.697202e+003,9.064423e-002
2.699612e+003,9.037658e-002
2.702023e+003,9.013491e-002
2.704433e+003,8.990487e-002
2.706844e+003,8.975496e-002
2.709255e+003,8.964486e-002
2.711665e+003,8.955073e-002
2.714076e+003,8.938421e-002
2.716486e+003,8.911068e-002
2.718897e+003,8.870150e-002
2.721308e+003,8.818464e-002
2.723718e+003,8.753473e-002
2.726129e+003,8.683881e-002
2.728539e+003,8.609916e-002
2.730950e+003,8.526821e-002
2.733360e+003,8.426950e-002
2.735771e+003,8.328070e-002
2.738182e+003,8.250749e-002
2.740592e+003,8.206622e-002
2.743003e+003,8.194892e-002
2.745413e+003,8.221935e-002
2.747824e+003,8.277349e-002
2.750235e+003,8.359991e-002
2.752645e+003,8.459479e-002
2.755056e+003,8.564809e-002
2.757466e+003,8.671532e-002
2.759877e+003,8.792625e-002
2.762287e+003,8.918476e-002
2.764698e+003,9.059446e-002
2.767109e+003,9.219312e-002
2.769519e+003,9.425224e-002
2.771930e+003,9.669561e-002
2.774340e+003,9.938317e-002
2.776751e+003,1.014658e-001
2.779162e+003,1.025039e-001
2.781572e+003,1.025268e-001
2.783983e+003,1.021802e-001
2.786393e+003,1.020065e-001
2.788804e+003,1.023183e-001
2.791214e+003,1.031797e-001
2.793625e+003,1.045276e-001
2.796036e+003,1.062600e-001
2.798446e+003,1.083269e-001
2.800857e+003,1.107905e-001
2.803267e+003,1.134850e-001
2.805678e+003,1.160293e-001
2.808089e+003,1.180745e-001
2.810499e+003,1.194095e-001
2.812910e+003,1.203150e-001
2.815320e+003,1.214204e-001
2.817731e+003,1.232085e-001
2.820141e+003,1.260317e-001
2.822552e+003,1.302812e-001
2.824963e+003,1.365252e-001
2.827373e+003,1.461250e-001
2.829784e+003,1.617147e-001
2.832194e+003,1.884454e-001
2.834605e+003,2.347428e-001
2.837016e+003,3.111173e-001
2.839426e+003,4.230799e-001
2.841837e+003,5.588074e-001
2.844247e+003,6.863570e-001
2.846658e+003,7.737918e-001
2.849068e+003,8.052375e-001
2.851479e+003,7.802988e-001
2.853890e+003,7.183523e-001
2.856300e+003,6.381068e-001
2.858711e+003,5.558649e-001
2.861121e+003,4.838207e-001
2.863532e+003,4.290084e-001
2.865943e+003,3.939892e-001
2.868353e+003,3.777374e-001
2.870764e+003,3.777547e-001
2.873174e+003,3.906105e-001
2.875585e+003,4.132924e-001
2.877995e+003,4.428678e-001
2.880406e+003,4.758505e-001
2.882817e+003,5.102901e-001
2.885227e+003,5.459657e-001
2.887638e+003,5.844756e-001
2.890048e+003,6.281525e-001
2.892459e+003,6.814707e-001
2.894870e+003,7.516437e-001
2.897280e+003,8.453517e-001
2.899691e+003,9.628558e-001
2.902101e+003,1.095359e+000
2.904512e+003,1.231987e+000
2.906922e+003,1.368007e+000
2.909333e+003,1.506001e+000
2.911744e+003,1.638032e+000
2.914154e+003,1.754476e+000
2.916565e+003,1.845754e+000
2.918975e+003,1.906229e+000
2.921386e+003,1.940234e+000
2.923797e+003,1.946739e+000
2.926207e+003,1.924733e+000
2.928618e+003,1.860173e+000
2.931028e+003,1.759039e+000
2.933439e+003,1.603565e+000
2.935849e+003,1.421765e+000
2.938260e+003,1.233945e+000
2.940671e+003,1.059619e+000
2.943081e+003,9.036540e-001
2.945492e+003,7.673099e-001
2.947902e+003,6.513062e-001
2.950313e+003,5.553203e-001
2.952724e+003,4.775605e-001
2.955134e+003,4.145554e-001
2.957545e+003,3.634048e-001
2.959955e+003,3.218106e-001
2.962366e+003,2.882270e-001
2.964776e+003,2.613487e-001
2.967187e+003,2.407227e-001
2.969598e+003,2.261301e-001
2.972008e+003,2.177737e-001
2.974419e+003,2.135818e-001
2.976829e+003,2.079121e-001
2.979240e+003,1.991839e-001
2.981651e+003,1.916790e-001
2.984061e+003,1.890035e-001
2.986472e+003,1.923230e-001
2.988882e+003,2.036742e-001
2.991293e+003,2.276061e-001
2.993703e+003,2.744493e-001
2.996114e+003,3.602189e-001
2.998525e+003,4.595239e-001
3.000935e+003,4.945850e-001
3.003346e+003,4.530781e-001
3.005756e+003,3.991882e-001
3.008167e+003,3.792269e-001
3.010578e+003,4.068450e-001
3.012988e+003,4.902462e-001
3.015399e+003,6.493164e-001
3.017809e+003,9.236394e-001
3.020220e+003,1.340270e+000
3.022630e+003,1.745356e+000
3.025041e+003,1.897491e+000
3.027452e+003,1.806074e+000
3.029862e+003,1.518979e+000
3.032273e+003,1.164748e+000
3.034683e+003,8.886349e-001
3.037094e+003,7.073296e-001
3.039505e+003,5.921149e-001
3.041915e+003,5.226327e-001
3.044326e+003,4.961806e-001
3.046736e+003,5.149218e-001
3.049147e+003,5.721837e-001
3.051557e+003,6.654171e-001
3.053968e+003,8.092918e-001
3.056379e+003,9.951859e-001
3.058789e+003,1.118122e+000
3.061200e+003,1.075070e+000
3.063610e+003,9.100055e-001
3.066021e+003,7.342454e-001
3.068432e+003,6.121333e-001
3.070842e+003,5.491816e-001
3.073253e+003,5.346597e-001
3.075663e+003,5.738028e-001
3.078074e+003,6.805212e-001
3.080484e+003,8.000175e-001
3.082895e+003,7.962729e-001
3.085306e+003,6.525353e-001
3.087716e+003,4.833335e-001
3.090127e+003,3.628846e-001
3.092537e+003,2.973621e-001
3.094948e+003,2.723602e-001
3.097359e+003,2.756909e-001
3.099769e+003,2.949096e-001
3.102180e+003,3.077939e-001
3.104590e+003,2.898025e-001
3.107001e+003,2.442799e-001
3.109411e+003,1.964812e-001
3.111822e+003,1.608458e-001
3.114233e+003,1.374165e-001
3.116643e+003,1.224233e-001
3.119054e+003,1.127532e-001
3.121464e+003,1.063883e-001
3.123875e+003,1.021090e-001
3.126286e+003,9.897490e-002
3.128696e+003,9.662966e-002
3.131107e+003,9.475103e-002
3.133517e+003,9.319197e-002
3.135928e+003,9.194873e-002
3.138338e+003,9.096330e-002
3.140749e+003,9.012990e-002
3.143160e+003,8.946930e-002
3.145570e+003,8.891029e-002
3.147981e+003,8.840451e-002
3.150391e+003,8.815607e-002
3.152802e+003,8.838619e-002
3.155213e+003,8.983955e-002
3.157623e+003,9.273779e-002
3.160034e+003,9.557635e-002
3.162444e+003,9.527499e-002
3.164855e+003,9.121320e-002
3.167265e+003,8.623327e-002
3.169676e+003,8.247207e-002
3.172087e+003,8.017496e-002
3.174497e+003,7.893423e-002
3.176908e+003,7.823572e-002
3.179318e+003,7.793473e-002
3.181729e+003,7.783749e-002
3.184140e+003,7.767635e-002
3.186550e+003,7.754315e-002
3.188961e+003,7.747555e-002
3.191371e+003,7.758974e-002
3.193782e+003,7.794036e-002
3.196192e+003,7.839575e-002
3.198603e+003,7.865873e-002
3.201014e+003,7.857820e-002
3.203424e+003,7.806610e-002
3.205835e+003,7.748976e-002
3.208245e+003,7.682501e-002
3.210656e+003,7.629644e-002
3.213067e+003,7.585572e-002
3.215477e+003,7.550752e-002
3.217888e+003,7.513011e-002
3.220298e+003,7.479978e-002
3.222709e+003,7.443048e-002
3.225119e+003,7.401931e-002
3.227530e+003,7.365876e-002
3.229941e+003,7.326788e-002
3.232351e+003,7.293117e-002
3.234762e+003,7.254051e-002
3.237172e+003,7.226415e-002
3.239583e+003,7.196211e-002
3.241994e+003,7.173059e-002
3.244404e+003,7.149755e-002
3.246815e+003,7.138374e-002
3.249225e+003,7.128955e-002
3.251636e+003,7.122470e-002
3.254046e+003,7.117595e-002
3.256457e+003,7.118805e-002
3.258868e+003,7.123286e-002
3.261278e+003,7.131310e-002
3.263689e+003,7.134496e-002
3.266099e+003,7.143533e-002
3.268510e+003,7.157753e-002
3.270921e+003,7.169413e-002
3.273331e+003,7.184528e-002
3.275742e+003,7.202140e-002
3.278152e+003,7.220882e-002
3.280563e+003,7.237933e-002
3.282973e+003,7.250503e-002
3.285384e+003,7.258711e-002
3.287795e+003,7.264414e-002
3.290205e+003,7.265757e-002
3.292616e+003,7.259569e-002
3.295026e+003,7.257211e-002
3.297437e+003,7.248405e-002
3.299848e+003,7.235459e-002
3.302258e+003,7.220463e-002
3.304669e+003,7.202891e-002
3.307079e+003,7.174201e-002
3.309490e+003,7.143244e-002
3.311900e+003,7.121674e-002
3.314311e+003,7.096646e-002
3.316722e+003,7.068661e-002
3.319132e+003,7.040141e-002
3.321543e+003,7.016877e-002
3.323953e+003,6.999114e-002
3.326364e+003,6.976129e-002
3.328775e+003,6.966839e-002
3.331185e+003,6.961238e-002
3.333596e+003,6.952149e-002
3.336006e+003,6.953063e-002
3.338417e+003,6.955983e-002
3.340827e+003,6.965011e-002
3.343238e+003,6.973433e-002
3.345649e+003,6.986706e-002
3.348059e+003,7.003887e-002
3.350470e+003,7.014038e-002
3.352880e+003,7.035127e-002
3.355291e+003,7.055429e-002
3.357702e+003,7.080988e-002
3.360112e+003,7.105620e-002
3.362523e+003,7.135797e-002
3.364933e+003,7.167619e-002
3.367344e+003,7.197533e-002
3.369754e+003,7.235107e-002
3.372165e+003,7.263286e-002
3.374576e+003,7.299533e-002
3.376986e+003,7.323412e-002
3.379397e+003,7.342135e-002
3.381807e+003,7.350434e-002
3.384218e+003,7.343273e-002
3.386628e+003,7.335744e-002
3.389039e+003,7.325259e-002
3.391450e+003,7.302438e-002
3.393860e+003,7.291118e-002
3.396271e+003,7.273133e-002
3.398681e+003,7.263818e-002
3.401092e+003,7.243832e-002
3.403503e+003,7.227534e-002
3.405913e+003,7.215428e-002
3.408324e+003,7.200963e-002
3.410734e+003,7.195096e-002
3.413145e+003,7.187652e-002
3.415555e+003,7.194627e-002
3.417966e+003,7.215917e-002
3.420377e+003,7.244009e-002
3.422787e+003,7.292431e-002
3.425198e+003,7.356561e-002
3.427608e+003,7.429730e-002
3.430019e+003,7.509229e-002
3.432430e+003,7.594111e-002
3.434840e+003,7.675584e-002
3.437251e+003,7.755009e-002
3.439661e+003,7.810160e-002
3.442072e+003,7.838956e-002
3.444482e+003,7.837674e-002
3.446893e+003,7.834646e-002
3.449304e+003,7.824536e-002
3.451714e+003,7.820473e-002
3.454125e+003,7.820699e-002
3.456535e+003,7.819930e-002
3.458946e+003,7.822976e-002
3.461357e+003,7.821425e-002
3.463767e+003,7.808637e-002
3.466178e+003,7.797085e-002
3.468588e+003,7.761879e-002
3.470999e+003,7.722646e-002
3.473409e+003,7.684185e-002
3.475820e+003,7.643747e-002
3.478231e+003,7.604160e-002
3.480641e+003,7.554163e-002
3.483052e+003,7.507658e-002
3.485462e+003,7.467321e-002
3.487873e+003,7.426211e-002
3.490284e+003,7.382490e-002
3.492694e+003,7.350533e-002
3.495105e+003,7.311365e-002
3.497515e+003,7.286596e-002
3.499926e+003,7.273161e-002
3.502336e+003,7.254803e-002
3.504747e+003,7.246279e-002
3.507158e+003,7.247853e-002
3.509568e+003,7.254423e-002
3.511979e+003,7.260712e-002
3.514389e+003,7.266968e-002
3.516800e+003,7.282364e-002
3.519211e+003,7.288054e-002
3.521621e+003,7.304594e-002
3.524032e+003,7.309707e-002
3.526442e+003,7.325247e-002
3.528853e+003,7.330315e-002
3.531263e+003,7.338113e-002
3.533674e+003,7.344525e-002
3.536085e+003,7.345530e-002
3.538495e+003,7.337113e-002
3.540906e+003,7.324282e-002
3.543316e+003,7.309679e-002
3.545727e+003,7.283598e-002
3.548138e+003,7.256937e-002
3.550548e+003,7.228344e-002
3.552959e+003,7.197854e-002
3.555369e+003,7.173868e-002
3.557780e+003,7.131915e-002
3.560190e+003,7.094562e-002
3.562601e+003,7.053952e-002
3.565012e+003,7.017578e-002
3.567422e+003,6.981507e-002
3.569833e+003,6.952461e-002
3.572243e+003,6.943144e-002
3.574654e+003,6.932831e-002
3.577065e+003,6.932306e-002
3.579475e+003,6.937671e-002
3.581886e+003,6.937080e-002
3.584296e+003,6.941865e-002
3.586707e+003,6.946407e-002
3.589117e+003,6.957217e-002
3.591528e+003,6.984593e-002
3.593939e+003,6.996506e-002
3.596349e+003,7.008774e-002
3.598760e+003,7.028005e-002
3.601170e+003,7.054517e-002
3.603581e+003,7.092495e-002
3.605992e+003,7.157401e-002
3.608402e+003,7.207741e-002
3.610813e+003,7.332461e-002
3.613223e+003,7.552054e-002
3.615634e+003,7.820751e-002
3.618044e+003,8.001379e-002
3.620455e+003,8.038981e-002
3.622866e+003,7.923599e-002
3.625276e+003,7.751646e-002
3.627687e+003,7.570411e-002
3.630097e+003,7.539593e-002
3.632508e+003,7.587603e-002
3.634919e+003,7.674173e-002
3.637329e+003,7.878857e-002
3.639740e+003,8.169574e-002
3.642150e+003,8.495136e-002
3.644561e+003,8.687657e-002
3.646971e+003,8.684998e-002
3.649382e+003,8.492807e-002
3.651793e+003,8.261809e-002
3.654203e+003,8.010948e-002
3.656614e+003,7.800332e-002
3.659024e+003,7.659855e-002
3.661435e+003,7.532041e-002
3.663846e+003,7.452787e-002
3.666256e+003,7.410285e-002
3.668667e+003,7.378075e-002
3.671077e+003,7.390828e-002
3.673488e+003,7.409986e-002
3.675898e+003,7.418609e-002
3.678309e+003,7.481804e-002
3.680720e+003,7.458854e-002
3.683130e+003,7.431149e-002
3.685541e+003,7.397271e-002
3.687951e+003,7.344819e-002
3.690362e+003,7.427859e-002
3.692773e+003,7.502085e-002
3.695183e+003,7.614662e-002
3.697594e+003,7.708976e-002
3.700004e+003,7.729629e-002
3.702415e+003,7.683291e-002
3.704825e+003,7.610852e-002
3.707236e+003,7.497328e-002
3.709647e+003,7.433693e-002
3.712057e+003,7.412611e-002
3.714468e+003,7.467722e-002
3.716878e+003,7.546991e-002
3.719289e+003,7.601961e-002
3.721700e+003,7.614583e-002
3.724110e+003,7.532262e-002
3.726521e+003,7.442053e-002
3.728931e+003,7.349646e-002
3.731342e+003,7.254126e-002
3.733752e+003,7.248119e-002
3.736163e+003,7.192063e-002
3.738574e+003,7.187448e-002
3.740984e+003,7.162226e-002
3.743395e+003,7.059542e-002
3.745805e+003,7.126480e-002
3.748216e+003,7.083932e-002
3.750627e+003,7.131274e-002
3.753037e+003,7.229228e-002
3.755448e+003,7.314902e-002
3.757858e+003,7.359838e-002
3.760269e+003,7.401557e-002
3.762679e+003,7.445514e-002
3.765090e+003,7.479025e-002
3.767501e+003,7.471122e-002
3.769911e+003,7.487134e-002
3.772322e+003,7.507536e-002
3.774732e+003,7.520035e-002
3.777143e+003,7.532569e-002
3.779554e+003,7.560287e-002
3.781964e+003,7.592300e-002
3.784375e+003,7.638137e-002
3.786785e+003,7.676782e-002
3.789196e+003,7.727479e-002
3.791606e+003,7.777970e-002
3.794017e+003,7.820664e-002
3.796428e+003,7.862589e-002
3.798838e+003,7.858551e-002
3.801249e+003,7.849141e-002
3.803659e+003,7.863181e-002
3.806070e+003,7.835825e-002
3.808481e+003,7.844684e-002
3.810891e+003,7.843652e-002
3.813302e+003,7.820314e-002
3.815712e+003,7.795452e-002
3.818123e+003,7.794321e-002
3.820533e+003,7.761826e-002
3.822944e+003,7.738414e-002
3.825355e+003,7.724594e-002
3.827765e+003,7.684280e-002
3.830176e+003,7.651583e-002
3.832586e+003,7.619471e-002
3.834997e+003,7.611626e-002
3.837408e+003,7.589734e-002
3.839818e+003,7.616892e-002
3.842229e+003,7.607212e-002
3.844639e+003,7.605447e-002
3.847050e+003,7.604764e-002
3.849460e+003,7.596084e-002
3.851871e+003,7.539281e-002
3.854282e+003,7.541078e-002
3.856692e+003,7.664887e-002
3.859103e+003,7.674292e-002
3.861513e+003,7.704692e-002
3.863924e+003,7.697578e-002
3.866335e+003,7.714331e-002
3.868745e+003,7.708858e-002
3.871156e+003,7.714347e-002
3.873566e+003,7.746243e-002
3.875977e+003,7.722591e-002
3.878387e+003,7.703861e-002
3.880798e+003,7.698864e-002
3.883209e+003,7.694912e-002
3.885619e+003,7.702955e-002
3.888030e+003,7.713412e-002
3.890440e+003,7.715977e-002
3.892851e+003,7.728145e-002
3.895262e+003,7.742624e-002
3.897672e+003,7.733473e-002
3.900083e+003,7.709531e-002
3.902493e+003,7.705827e-002
3.904904e+003,7.724558e-002
3.907314e+003,7.724748e-002
3.909725e+003,7.732464e-002
3.912136e+003,7.744774e-002
3.914546e+003,7.767207e-002
3.916957e+003,7.800686e-002
3.919367e+003,7.851166e-002
3.921778e+003,7.873788e-002
3.924189e+003,7.918811e-002
3.926599e+003,7.946124e-002
3.929010e+003,8.001291e-002
3.931420e+003,8.043340e-002
3.933831e+003,8.083094e-002
3.936241e+003,8.115458e-002
3.938652e+003,8.118231e-002
3.941063e+003,8.115758e-002
3.943473e+003,8.092327e-002
3.945884e+003,8.087568e-002
3.948294e+003,8.076680e-002
3.950705e+003,8.078472e-002
3.953116e+003,8.093783e-002
3.955526e+003,8.114608e-002
3.957937e+003,8.134783e-002
3.960347e+003,8.152161e-002
3.962758e+003,8.167370e-002
3.965168e+003,8.180269e-002
3.967579e+003,8.191219e-002
3.969990e+003,8.226018e-002
3.972400e+003,8.253963e-002
3.974811e+003,8.269276e-002
3.977221e+003,8.248297e-002
3.979632e+003,8.214492e-002
3.982043e+003,8.186818e-002
3.984453e+003,8.187073e-002
3.986864e+003,8.222050e-002
3.989274e+003,8.299983e-002
3.991685e+003,8.425871e-002
3.994095e+003,8.615822e-002
3.996506e+003,8.798038e-002
3.998917e+003,8.920974e-002
3.999881e+003,8.945301e-002