File: Calibration/FTIR-PolystyreneRAL(3mil)_2cm-1.csv
3.999158e+002,5.109160e-002
4.023264e+002,7.239968e-002
4.047370e+002,9.293232e-002
4.071476e+002,1.052293e-001
4.095581e+002,1.099458e-001
4.119687e+002,1.125780e-001
4.143793e+002,1.170807e-001
4.167899e+002,1.194514e-001
4.192005e+002,1.165032e-001
4.216111e+002,1.070367e-001
4.240216e+002,9.490107e-002
4.264322e+002,8.271023e-002
4.288428e+002,7.120003e-002
4.312534e+002,6.521931e-002
4.336640e+002,6.417936e-002
4.360746e+002,6.929174e-002
4.384851e+002,7.926334e-002
4.408957e+002,9.186888e-002
4.433063e+002,1.056336e-001
4.457169e+002,1.185026e-001
4.481275e+002,1.281471e-001
4.505381e+002,1.334207e-001
4.529486e+002,1.337948e-001
4.553592e+002,1.274247e-001
4.577698e+002,1.208686e-001
4.601804e+002,1.073646e-001
4.625910e+002,9.786727e-002
4.650016e+002,9.093111e-002
4.674121e+002,8.668906e-002
4.698227e+002,8.721323e-002
4.722333e+002,9.367940e-002
4.746439e+002,1.035072e-001
4.770545e+002,1.172789e-001
4.794651e+002,1.315444e-001
4.818756e+002,1.449792e-001
4.842862e+002,1.544306e-001
4.866968e+002,1.594292e-001
4.891074e+002,1.597441e-001
4.915180e+002,1.562661e-001
4.939286e+002,1.519676e-001
4.963391e+002,1.482877e-001
4.987497e+002,1.479707e-001
5.011603e+002,1.548093e-001
5.035709e+002,1.706339e-001
5.059815e+002,1.945559e-001
5.083921e+002,2.246639e-001
5.108026e+002,2.590915e-001
5.132132e+002,2.909336e-001
5.156238e+002,3.206072e-001
5.180344e+002,3.491881e-001
5.204449e+002,3.836899e-001
5.228555e+002,4.337919e-001
5.252661e+002,5.164849e-001
5.276767e+002,6.502221e-001
5.300873e+002,8.415980e-001
5.324979e+002,1.099455e+000
5.349084e+002,1.401685e+000
5.373190e+002,1.657262e+000
5.397296e+002,1.746932e+000
5.421402e+002,1.677000e+000
5.445508e+002,1.539965e+000
5.469614e+002,1.390685e+000
5.493719e+002,1.272236e+000
5.517825e+002,1.181662e+000
5.541931e+002,1.108009e+000
5.566037e+002,1.044648e+000
5.590143e+002,9.916136e-001
5.614249e+002,9.352426e-001
5.638354e+002,8.747416e-001
5.662460e+002,8.138611e-001
5.686566e+002,7.540218e-001
5.710672e+002,6.875865e-001
5.734778e+002,6.144199e-001
5.758884e+002,5.403736e-001
5.782990e+002,4.714629e-001
5.807095e+002,4.150720e-001
5.831201e+002,3.736575e-001
5.855307e+002,3.474289e-001
5.879413e+002,3.316717e-001
5.903519e+002,3.202358e-001
5.927625e+002,3.114100e-001
5.951730e+002,3.033633e-001
5.975836e+002,2.939921e-001
5.999942e+002,2.828622e-001
6.024048e+002,2.701029e-001
6.048154e+002,2.574095e-001
6.072260e+002,2.471733e-001
6.096365e+002,2.418818e-001
6.120471e+002,2.439839e-001
6.144577e+002,2.539280e-001
6.168683e+002,2.715226e-001
6.192789e+002,3.111031e-001
6.216895e+002,3.198898e-001
6.241000e+002,3.014621e-001
6.265106e+002,3.001181e-001
6.289212e+002,2.907883e-001
6.313318e+002,2.746737e-001
6.337424e+002,2.508839e-001
6.361530e+002,2.190760e-001
6.385635e+002,1.863315e-001
6.409741e+002,1.629588e-001
6.433847e+002,1.519512e-001
6.457953e+002,1.537798e-001
6.482059e+002,1.659001e-001
6.506165e+002,1.849011e-001
6.530270e+002,2.082598e-001
6.554376e+002,2.321147e-001
6.578482e+002,2.542816e-001
6.602588e+002,2.755604e-001
6.626694e+002,2.989700e-001
6.650800e+002,3.280187e-001
6.674905e+002,3.505488e-001
6.699011e+002,3.942926e-001
6.723117e+002,4.309422e-001
6.747223e+002,4.673021e-001
6.771329e+002,5.003036e-001
6.795435e+002,5.349586e-001
6.819540e+002,5.940185e-001
6.843646e+002,7.095997e-001
6.867752e+002,8.990846e-001
6.891858e+002,1.277168e+000
6.915964e+002,2.164710e+000
6.940070e+002,3.115823e+000
6.964175e+002,3.514000e+000
6.988281e+002,3.427185e+000
7.012387e+002,3.322021e+000
7.036493e+002,3.197462e+000
7.060599e+002,3.346696e+000
7.084705e+002,2.010605e+000
7.108810e+002,1.142678e+000
7.132916e+002,7.583600e-001
7.157022e+002,5.985002e-001
7.181128e+002,5.322217e-001
7.205234e+002,4.914030e-001
7.229340e+002,4.689683e-001
7.253445e+002,4.745380e-001
7.277551e+002,5.018161e-001
7.301657e+002,5.591211e-001
7.325763e+002,6.706893e-001
7.349869e+002,8.821794e-001
7.373975e+002,1.139044e+000
7.398080e+002,1.459906e+000
7.422186e+002,1.925440e+000
7.446292e+002,2.576534e+000
7.470398e+002,3.002045e+000
7.494504e+002,3.084596e+000
7.518610e+002,3.149672e+000
7.542715e+002,3.222414e+000
7.566821e+002,3.301969e+000
7.590927e+002,3.057337e+000
7.615033e+002,3.037019e+000
7.639139e+002,2.889624e+000
7.663245e+002,2.609433e+000
7.687350e+002,2.237058e+000
7.711456e+002,1.824116e+000
7.735562e+002,1.452282e+000
7.759668e+002,1.147843e+000
7.783774e+002,9.112100e-001
7.807880e+002,7.384540e-001
7.831985e+002,6.166783e-001
7.856091e+002,5.241199e-001
7.880197e+002,4.433764e-001
7.904303e+002,3.706517e-001
7.928409e+002,3.097203e-001
7.952515e+002,2.642536e-001
7.976620e+002,2.331316e-001
8.000726e+002,2.150276e-001
8.024832e+002,2.066816e-001
8.048938e+002,2.038229e-001
8.073044e+002,2.015845e-001
8.097150e+002,1.958922e-001
8.121255e+002,1.861841e-001
8.145361e+002,1.746535e-001
8.169467e+002,1.633106e-001
8.193573e+002,1.546504e-001
8.217679e+002,1.508579e-001
8.241785e+002,1.523663e-001
8.265891e+002,1.599729e-001
8.289996e+002,1.739528e-001
8.314102e+002,1.976108e-001
8.338208e+002,2.395985e-001
8.362314e+002,3.008613e-001
8.386420e+002,3.575215e-001
8.410526e+002,3.835436e-001
8.434631e+002,3.702989e-001
8.458737e+002,3.264161e-001
8.482843e+002,2.675579e-001
8.506949e+002,2.149037e-001
8.531055e+002,1.826279e-001
8.555161e+002,1.678311e-001
8.579266e+002,1.633213e-001
8.603372e+002,1.646430e-001
8.627478e+002,1.695611e-001
8.651584e+002,1.763093e-001
8.675690e+002,1.830076e-001
8.699796e+002,1.879706e-001
8.723901e+002,1.906976e-001
8.748007e+002,1.911780e-001
8.772113e+002,1.898938e-001
8.796219e+002,1.892090e-001
8.820325e+002,1.912829e-001
8.844431e+002,1.985347e-001
8.868536e+002,2.120630e-001
8.892642e+002,2.318640e-001
8.916748e+002,2.577049e-001
8.940854e+002,2.934738e-001
8.964960e+002,3.514225e-001
8.989066e+002,4.566489e-001
9.013171e+002,6.209478e-001
9.037277e+002,8.063277e-001
9.061383e+002,9.334926e-001
9.085489e+002,9.320071e-001
9.109595e+002,8.174863e-001
9.133700e+002,6.569507e-001
9.157806e+002,5.118591e-001
9.181912e+002,4.074942e-001
9.206018e+002,3.394114e-001
9.230123e+002,2.959118e-001
9.254230e+002,2.704170e-001
9.278335e+002,2.603133e-001
9.302441e+002,2.660247e-001
9.326547e+002,2.868537e-001
9.350653e+002,3.191964e-001
9.374758e+002,3.568206e-001
9.398865e+002,3.915820e-001
9.422970e+002,4.125479e-001
9.447076e+002,4.133040e-001
9.471182e+002,4.042746e-001
9.495288e+002,4.032776e-001
9.519393e+002,4.228880e-001
9.543500e+002,4.732414e-001
9.567605e+002,5.727023e-001
9.591711e+002,7.454743e-001
9.615817e+002,9.748788e-001
9.639923e+002,1.153018e+000
9.664028e+002,1.178123e+000
9.688135e+002,1.058511e+000
9.712240e+002,8.906891e-001
9.736346e+002,7.562879e-001
9.760452e+002,6.790583e-001
9.784558e+002,6.353523e-001
9.808663e+002,5.927265e-001
9.832770e+002,5.437903e-001
9.856875e+002,4.953845e-001
9.880981e+002,4.631586e-001
9.905087e+002,4.526432e-001
9.929193e+002,4.508620e-001
9.953298e+002,4.454087e-001
9.977405e+002,4.461712e-001
1.000151e+003,5.011473e-001
1.002562e+003,5.585775e-001
1.004972e+003,5.225351e-001
1.007383e+003,4.831506e-001
1.009793e+003,4.859873e-001
1.012204e+003,5.118038e-001
1.014615e+003,5.524008e-001
1.017025e+003,6.087233e-001
1.019436e+003,6.877759e-001
1.021846e+003,8.061411e-001
1.024257e+003,1.009983e+000
1.026667e+003,1.303352e+000
1.029078e+003,1.369053e+000
1.031489e+003,1.138187e+000
1.033899e+003,7.581657e-001
1.036310e+003,5.116369e-001
1.038720e+003,4.081105e-001
1.041131e+003,3.744439e-001
1.043542e+003,3.695478e-001
1.045952e+003,3.775913e-001
1.048363e+003,3.925982e-001
1.050773e+003,4.116721e-001
1.053184e+003,4.347941e-001
1.055594e+003,4.627508e-001
1.058005e+003,4.978134e-001
1.060416e+003,5.465735e-001
1.062826e+003,6.152032e-001
1.065237e+003,7.001330e-001
1.067647e+003,7.673633e-001
1.070058e+003,7.740778e-001
1.072469e+003,7.197656e-001
1.074879e+003,6.310190e-001
1.077290e+003,5.630500e-001
1.079700e+003,5.173380e-001
1.082111e+003,4.675260e-001
1.084521e+003,4.199947e-001
1.086932e+003,3.841169e-001
1.089343e+003,3.590945e-001
1.091753e+003,3.405598e-001
1.094164e+003,3.240785e-001
1.096574e+003,3.069077e-001
1.098985e+003,2.889641e-001
1.101396e+003,2.718588e-001
1.103806e+003,2.588663e-001
1.106217e+003,2.538966e-001
1.108627e+003,2.575286e-001
1.111038e+003,2.624517e-001
1.113448e+003,2.589318e-001
1.115859e+003,2.425795e-001
1.118270e+003,2.209035e-001
1.120680e+003,2.045826e-001
1.123091e+003,1.953541e-001
1.125501e+003,1.911745e-001
1.127912e+003,1.891891e-001
1.130323e+003,1.876670e-001
1.132733e+003,1.865569e-001
1.135144e+003,1.869371e-001
1.137554e+003,1.909118e-001
1.139965e+003,2.014514e-001
1.142375e+003,2.210807e-001
1.144786e+003,2.496137e-001
1.147197e+003,2.906535e-001
1.149607e+003,3.726193e-001
1.152018e+003,5.169203e-001
1.154428e+003,5.973455e-001
1.156839e+003,5.219584e-001
1.159250e+003,4.093295e-001
1.161660e+003,3.497502e-001
1.164071e+003,3.292502e-001
1.166481e+003,3.244523e-001
1.168892e+003,3.262297e-001
1.171302e+003,3.339212e-001
1.173713e+003,3.554811e-001
1.176124e+003,4.195164e-001
1.178534e+003,5.439520e-001
1.180945e+003,6.207215e-001
1.183355e+003,5.707338e-001
1.185766e+003,4.919299e-001
1.188177e+003,4.569759e-001
1.190587e+003,4.511109e-001
1.192998e+003,4.520372e-001
1.195408e+003,4.542486e-001
1.197819e+003,4.505328e-001
1.200229e+003,4.317958e-001
1.202640e+003,4.015694e-001
1.205051e+003,3.702246e-001
1.207461e+003,3.429580e-001
1.209872e+003,3.202314e-001
1.212282e+003,3.017877e-001
1.214693e+003,2.877704e-001
1.217104e+003,2.787794e-001
1.219514e+003,2.756511e-001
1.221925e+003,2.774197e-001
1.224335e+003,2.811449e-001
1.226746e+003,2.837084e-001
1.229156e+003,2.848597e-001
1.231567e+003,2.863927e-001
1.233978e+003,2.898958e-001
1.236388e+003,2.951184e-001
1.238799e+003,2.998684e-001
1.241209e+003,2.999052e-001
1.243620e+003,2.955751e-001
1.246031e+003,2.898562e-001
1.248441e+003,2.834951e-001
1.250852e+003,2.762167e-001
1.253262e+003,2.693344e-001
1.255673e+003,2.646858e-001
1.258083e+003,2.640126e-001
1.260494e+003,2.676433e-001
1.262905e+003,2.744240e-001
1.265315e+003,2.829544e-001
1.267726e+003,2.925812e-001
1.270136e+003,3.040714e-001
1.272547e+003,3.187272e-001
1.274958e+003,3.381957e-001
1.277368e+003,3.592891e-001
1.279779e+003,3.735579e-001
1.282189e+003,3.778835e-001
1.284600e+003,3.788999e-001
1.287010e+003,3.857028e-001
1.289421e+003,4.007559e-001
1.291832e+003,4.163693e-001
1.294242e+003,4.279772e-001
1.296653e+003,4.388655e-001
1.299063e+003,4.587771e-001
1.301474e+003,4.892233e-001
1.303885e+003,5.207512e-001
1.306295e+003,5.504893e-001
1.308706e+003,5.802256e-001
1.311116e+003,5.998251e-001
1.313527e+003,5.960437e-001
1.315938e+003,5.756158e-001
1.318348e+003,5.567775e-001
1.320759e+003,5.528543e-001
1.323169e+003,5.663447e-001
1.325580e+003,5.921218e-001
1.327990e+003,6.117644e-001
1.330401e+003,5.958974e-001
1.332812e+003,5.535808e-001
1.335222e+003,5.148172e-001
1.337633e+003,4.986290e-001
1.340043e+003,5.084192e-001
1.342454e+003,5.364074e-001
1.344865e+003,5.701670e-001
1.347275e+003,5.970818e-001
1.349686e+003,6.101089e-001
1.352096e+003,6.120279e-001
1.354507e+003,6.134807e-001
1.356917e+003,6.274227e-001
1.359328e+003,6.526725e-001
1.361739e+003,6.771054e-001
1.364149e+003,6.967620e-001
1.366560e+003,7.128958e-001
1.368970e+003,7.294556e-001
1.371381e+003,7.476403e-001
1.373792e+003,7.515358e-001
1.376202e+003,7.208760e-001
1.378613e+003,6.653277e-001
1.381023e+003,6.101077e-001
1.383434e+003,5.571917e-001
1.385844e+003,4.938595e-001
1.388255e+003,4.241640e-001
1.390666e+003,3.646924e-001
1.393076e+003,3.202792e-001
1.395487e+003,2.930683e-001
1.397897e+003,2.829164e-001
1.400308e+003,2.800779e-001
1.402719e+003,2.785312e-001
1.405129e+003,2.725314e-001
1.407540e+003,2.644938e-001
1.409950e+003,2.604482e-001
1.412361e+003,2.632858e-001
1.414771e+003,2.736604e-001
1.417182e+003,2.890864e-001
1.419593e+003,2.971732e-001
1.422003e+003,3.028811e-001
1.424414e+003,3.276971e-001
1.426824e+003,3.857777e-001
1.429235e+003,4.874493e-001
1.431645e+003,6.332282e-001
1.434056e+003,8.217134e-001
1.436467e+003,1.053128e+000
1.438877e+003,1.310987e+000
1.441288e+003,1.604113e+000
1.443698e+003,2.003969e+000
1.446109e+003,2.506275e+000
1.448520e+003,2.991133e+000
1.450930e+003,3.290703e+000
1.453341e+003,3.284237e+000
1.455751e+003,2.148759e+000
1.458162e+003,1.114830e+000
1.460572e+003,7.759941e-001
1.462983e+003,6.323177e-001
1.465394e+003,5.315256e-001
1.467804e+003,4.675438e-001
1.470215e+003,4.159610e-001
1.472625e+003,4.063306e-001
1.475036e+003,3.733976e-001
1.477447e+003,3.809434e-001
1.479857e+003,4.320507e-001
1.482268e+003,5.559641e-001
1.484678e+003,8.252451e-001
1.487089e+003,1.303092e+000
1.489499e+003,2.223318e+000
1.491910e+003,3.217633e+000
1.494321e+003,3.218358e+000
1.496731e+003,1.664104e+000
1.499142e+003,8.245956e-001
1.501552e+003,4.984726e-001
1.503963e+003,3.592339e-001
1.506374e+003,2.892646e-001
1.508784e+003,2.506875e-001
1.511195e+003,2.266487e-001
1.513605e+003,2.080913e-001
1.516016e+003,1.922601e-001
1.518426e+003,1.796087e-001
1.520837e+003,1.716855e-001
1.523248e+003,1.675824e-001
1.525658e+003,1.695070e-001
1.528069e+003,1.779060e-001
1.530479e+003,1.937921e-001
1.532890e+003,2.169208e-001
1.535301e+003,2.468669e-001
1.537711e+003,2.737563e-001
1.540122e+003,2.853058e-001
1.542532e+003,2.758598e-001
1.544943e+003,2.578239e-001
1.547353e+003,2.344750e-001
1.549764e+003,2.091207e-001
1.552175e+003,1.856590e-001
1.554585e+003,1.665857e-001
1.556996e+003,1.543987e-001
1.559406e+003,1.485778e-001
1.561817e+003,1.472539e-001
1.564228e+003,1.516770e-001
1.566638e+003,1.601100e-001
1.569049e+003,1.715553e-001
1.571459e+003,1.935883e-001
1.573870e+003,2.264454e-001
1.576280e+003,2.702549e-001
1.578691e+003,3.655176e-001
1.581102e+003,6.145901e-001
1.583512e+003,7.056759e-001
1.585923e+003,4.982449e-001
1.588333e+003,4.243062e-001
1.590744e+003,4.899741e-001
1.593155e+003,6.319622e-001
1.595565e+003,8.896735e-001
1.597976e+003,1.395597e+000
1.600386e+003,1.950868e+000
1.602797e+003,1.736282e+000
1.605207e+003,1.112033e+000
1.607618e+003,6.472070e-001
1.610029e+003,4.125603e-001
1.612439e+003,3.077685e-001
1.614850e+003,2.566543e-001
1.617260e+003,2.262374e-001
1.619671e+003,2.086360e-001
1.622082e+003,1.977452e-001
1.624492e+003,1.884921e-001
1.626903e+003,1.794681e-001
1.629313e+003,1.725865e-001
1.631724e+003,1.705036e-001
1.634134e+003,1.759345e-001
1.636545e+003,1.898995e-001
1.638956e+003,1.999813e-001
1.641366e+003,1.973852e-001
1.643777e+003,1.901121e-001
1.646187e+003,1.897730e-001
1.648598e+003,1.947916e-001
1.651009e+003,2.015063e-001
1.653419e+003,2.091594e-001
1.655830e+003,2.139138e-001
1.658240e+003,2.187320e-001
1.660651e+003,2.239453e-001
1.663061e+003,2.302054e-001
1.665472e+003,2.349999e-001
1.667883e+003,2.358175e-001
1.670293e+003,2.318813e-001
1.672704e+003,2.258494e-001
1.675114e+003,2.205635e-001
1.677525e+003,2.156589e-001
1.679936e+003,2.108795e-001
1.682346e+003,2.059951e-001
1.684757e+003,2.009127e-001
1.687167e+003,1.952875e-001
1.689578e+003,1.907373e-001
1.691988e+003,1.881122e-001
1.694399e+003,1.886952e-001
1.696810e+003,1.924612e-001
1.699220e+003,1.972968e-001
1.701631e+003,2.006550e-001
1.704041e+003,2.031890e-001
1.706452e+003,2.053319e-001
1.708863e+003,2.075483e-001
1.711273e+003,2.103275e-001
1.713684e+003,2.137157e-001
1.716094e+003,2.177693e-001
1.718505e+003,2.221781e-001
1.720915e+003,2.265547e-001
1.723326e+003,2.319102e-001
1.725737e+003,2.387452e-001
1.728147e+003,2.474302e-001
1.730558e+003,2.586157e-001
1.732968e+003,2.723546e-001
1.735379e+003,2.881916e-001
1.737790e+003,3.024155e-001
1.740200e+003,3.143840e-001
1.742611e+003,3.203212e-001
1.745021e+003,3.198719e-001
1.747432e+003,3.118192e-001
1.749842e+003,2.974225e-001
1.752253e+003,2.770130e-001
1.754664e+003,2.550576e-001
1.757074e+003,2.326508e-001
1.759485e+003,2.126556e-001
1.761895e+003,1.954789e-001
1.764306e+003,1.822516e-001
1.766717e+003,1.733299e-001
1.769127e+003,1.692344e-001
1.771538e+003,1.709401e-001
1.773948e+003,1.728217e-001
1.776359e+003,1.698098e-001
1.778769e+003,1.628951e-001
1.781180e+003,1.573232e-001
1.783591e+003,1.573398e-001
1.786001e+003,1.644621e-001
1.788412e+003,1.800861e-001
1.790822e+003,2.051977e-001
1.793233e+003,2.398999e-001
1.795644e+003,2.762785e-001
1.798054e+003,3.075892e-001
1.800465e+003,3.254142e-001
1.802875e+003,3.268138e-001
1.805286e+003,3.147958e-001
1.807696e+003,2.949645e-001
1.810107e+003,2.730367e-001
1.812518e+003,2.518657e-001
1.814928e+003,2.323656e-001
1.817339e+003,2.141545e-001
1.819749e+003,1.967394e-001
1.822160e+003,1.797681e-001
1.824571e+003,1.635298e-001
1.826981e+003,1.482784e-001
1.829392e+003,1.349009e-001
1.831802e+003,1.235800e-001
1.834213e+003,1.148856e-001
1.836623e+003,1.086275e-001
1.839034e+003,1.046990e-001
1.841445e+003,1.028190e-001
1.843855e+003,1.032887e-001
1.846266e+003,1.056898e-001
1.848676e+003,1.111755e-001
1.851087e+003,1.204833e-001
1.853498e+003,1.350405e-001
1.855908e+003,1.563693e-001
1.858319e+003,1.852923e-001
1.860729e+003,2.201753e-001
1.863140e+003,2.560607e-001
1.865550e+003,2.855288e-001
1.867961e+003,3.025814e-001
1.870372e+003,3.061273e-001
1.872782e+003,2.998426e-001
1.875193e+003,2.891347e-001
1.877603e+003,2.781767e-001
1.880014e+003,2.680985e-001
1.882425e+003,2.574444e-001
1.884835e+003,2.439441e-001
1.887246e+003,2.265103e-001
1.889656e+003,2.055033e-001
1.892067e+003,1.834346e-001
1.894477e+003,1.623752e-001
1.896888e+003,1.445192e-001
1.899299e+003,1.306291e-001
1.901709e+003,1.206593e-001
1.904120e+003,1.138378e-001
1.906530e+003,1.094321e-001
1.908941e+003,1.068017e-001
1.911352e+003,1.060535e-001
1.913762e+003,1.074640e-001
1.916173e+003,1.114148e-001
1.918583e+003,1.181955e-001
1.920994e+003,1.274166e-001
1.923404e+003,1.389122e-001
1.925815e+003,1.530313e-001
1.928226e+003,1.722482e-001
1.930636e+003,2.006560e-001
1.933047e+003,2.414643e-001
1.935457e+003,2.925527e-001
1.937868e+003,3.437339e-001
1.940279e+003,3.798378e-001
1.942689e+003,3.902219e-001
1.945100e+003,3.755184e-001
1.947510e+003,3.463486e-001
1.949921e+003,3.158777e-001
1.952331e+003,2.919589e-001
1.954742e+003,2.750081e-001
1.957153e+003,2.611271e-001
1.959563e+003,2.455597e-001
1.961974e+003,2.255060e-001
1.964384e+003,2.009440e-001
1.966795e+003,1.745313e-001
1.969206e+003,1.501516e-001
1.971616e+003,1.310983e-001
1.974027e+003,1.191700e-001
1.976437e+003,1.140302e-001
1.978848e+003,1.127684e-001
1.981258e+003,1.127862e-001
1.983669e+003,1.129448e-001
1.986080e+003,1.103883e-001
1.988490e+003,1.035506e-001
1.990901e+003,9.543709e-002
1.993311e+003,8.865208e-002
1.995722e+003,8.397134e-002
1.998133e+003,8.109543e-002
2.000543e+003,7.979729e-002
2.002954e+003,7.950573e-002
2.005364e+003,7.962228e-002
2.007775e+003,7.960895e-002
2.010185e+003,7.912645e-002
2.012596e+003,7.812611e-002
2.015007e+003,7.694204e-002
2.017417e+003,7.588713e-002
2.019828e+003,7.508449e-002
2.022238e+003,7.444236e-002
2.024649e+003,7.388263e-002
2.027060e+003,7.343944e-002
2.029470e+003,7.304363e-002
2.031881e+003,7.249466e-002
2.034291e+003,7.185963e-002
2.036702e+003,7.142232e-002
2.039112e+003,7.127999e-002
2.041523e+003,7.141268e-002
2.043934e+003,7.178629e-002
2.046344e+003,7.217959e-002
2.048755e+003,7.244071e-002
2.051166e+003,7.251647e-002
2.053576e+003,7.241073e-002
2.055987e+003,7.209184e-002
2.058397e+003,7.168338e-002
2.060808e+003,7.113621e-002
2.063218e+003,7.063094e-002
2.065629e+003,7.021987e-002
2.068040e+003,7.000991e-002
2.070450e+003,6.995019e-002
2.072861e+003,6.999496e-002
2.075271e+003,7.008466e-002
2.077682e+003,7.027394e-002
2.080093e+003,7.046485e-002
2.082503e+003,7.077712e-002
2.084914e+003,7.106764e-002
2.087324e+003,7.125558e-002
2.089735e+003,7.121506e-002
2.092145e+003,7.108391e-002
2.094556e+003,7.090802e-002
2.096967e+003,7.070841e-002
2.099377e+003,7.052744e-002
2.101788e+003,7.042451e-002
2.104198e+003,7.047884e-002
2.106609e+003,7.076705e-002
2.109020e+003,7.129377e-002
2.111430e+003,7.205691e-002
2.113841e+003,7.273600e-002
2.116251e+003,7.328377e-002
2.118662e+003,7.372952e-002
2.121072e+003,7.398485e-002
2.123483e+003,7.411574e-002
2.125894e+003,7.411125e-002
2.128304e+003,7.403624e-002
2.130715e+003,7.392745e-002
2.133125e+003,7.389520e-002
2.135536e+003,7.394533e-002
2.137947e+003,7.410548e-002
2.140357e+003,7.443441e-002
2.142768e+003,7.483548e-002
2.145178e+003,7.536116e-002
2.147589e+003,7.588787e-002
2.149999e+003,7.653041e-002
2.152410e+003,7.721336e-002
2.154821e+003,7.772826e-002
2.157231e+003,7.808728e-002
2.159642e+003,7.827718e-002
2.162052e+003,7.841020e-002
2.164463e+003,7.847375e-002
2.166874e+003,7.851230e-002
2.169284e+003,7.861552e-002
2.171695e+003,7.883688e-002
2.174105e+003,7.933863e-002
2.176516e+003,8.024973e-002
2.178926e+003,8.173393e-002
2.181337e+003,8.342313e-002
2.183748e+003,8.456501e-002
2.186158e+003,8.473709e-002
2.188569e+003,8.430434e-002
2.190979e+003,8.371714e-002
2.193390e+003,8.327713e-002
2.195801e+003,8.297896e-002
2.198211e+003,8.284446e-002
2.200622e+003,8.295683e-002
2.203032e+003,8.335299e-002
2.205443e+003,8.409787e-002
2.207853e+003,8.481954e-002
2.210264e+003,8.503268e-002
2.212675e+003,8.468655e-002
2.215085e+003,8.433621e-002
2.217496e+003,8.422263e-002
2.219906e+003,8.456980e-002
2.222317e+003,8.525088e-002
2.224728e+003,8.621108e-002
2.227138e+003,8.718479e-002
2.229549e+003,8.795895e-002
2.231959e+003,8.846442e-002
2.234370e+003,8.888785e-002
2.236780e+003,8.941230e-002
2.239191e+003,9.012195e-002
2.241602e+003,9.102373e-002
2.244012e+003,9.232048e-002
2.246423e+003,9.384938e-002
2.248833e+003,9.546962e-002
2.251244e+003,9.681460e-002
2.253655e+003,9.760360e-002
2.256065e+003,9.770795e-002
2.258476e+003,9.730772e-002
2.260886e+003,9.659970e-002
2.263297e+003,9.575348e-002
2.265707e+003,9.487085e-002
2.268118e+003,9.397714e-002
2.270529e+003,9.318401e-002
2.272939e+003,9.256693e-002
2.275350e+003,9.208440e-002
2.277760e+003,9.193403e-002
2.280171e+003,9.230445e-002
2.282582e+003,9.323592e-002
2.284992e+003,9.468357e-002
2.287403e+003,9.660384e-002
2.289813e+003,9.844534e-002
2.292224e+003,9.951594e-002
2.294634e+003,9.948760e-002
2.297045e+003,9.898098e-002
2.299456e+003,9.898368e-002
2.301866e+003,1.008446e-001
2.304277e+003,1.056651e-001
2.306687e+003,1.132691e-001
2.309098e+003,1.204596e-001
2.311509e+003,1.220494e-001
2.313919e+003,1.169767e-001
2.316330e+003,1.091710e-001
2.318740e+003,1.025993e-001
2.321151e+003,9.902093e-002
2.323561e+003,9.828427e-002
2.325972e+003,1.007441e-001
2.328383e+003,1.067746e-001
2.330793e+003,1.173691e-001
2.333204e+003,1.307614e-001
2.335614e+003,1.389860e-001
2.338025e+003,1.368368e-001
2.340436e+003,1.274367e-001
2.342846e+003,1.179656e-001
2.345257e+003,1.121945e-001
2.347667e+003,1.106802e-001
2.350078e+003,1.078119e-001
2.352488e+003,1.040675e-001
2.354899e+003,1.021196e-001
2.357310e+003,1.015223e-001
2.359720e+003,1.011132e-001
2.362131e+003,9.997172e-002
2.364541e+003,9.833886e-002
2.366952e+003,9.702650e-002
2.369363e+003,9.664667e-002
2.371773e+003,9.730623e-002
2.374184e+003,9.873559e-002
2.376594e+003,1.004567e-001
2.379005e+003,1.018318e-001
2.381415e+003,1.024432e-001
2.383826e+003,1.024586e-001
2.386237e+003,1.022218e-001
2.388647e+003,1.019695e-001
2.391058e+003,1.017475e-001
2.393468e+003,1.015129e-001
2.395879e+003,1.012796e-001
2.398289e+003,1.009646e-001
2.400700e+003,1.006135e-001
2.403111e+003,1.002022e-001
2.405521e+003,9.969898e-002
2.407932e+003,9.918881e-002
2.410342e+003,9.867159e-002
2.412753e+003,9.829191e-002
2.415164e+003,9.809518e-002
2.417574e+003,9.796176e-002
2.419985e+003,9.794524e-002
2.422395e+003,9.805302e-002
2.424806e+003,9.838486e-002
2.427216e+003,9.885918e-002
2.429627e+003,9.948914e-002
2.432038e+003,1.001834e-001
2.434448e+003,1.007503e-001
2.436859e+003,1.012776e-001
2.439269e+003,1.017566e-001
2.441680e+003,1.022932e-001
2.444091e+003,1.029476e-001
2.446501e+003,1.036313e-001
2.448912e+003,1.044416e-001
2.451322e+003,1.051299e-001
2.453733e+003,1.052395e-001
2.456143e+003,1.049050e-001
2.458554e+003,1.048441e-001
2.460965e+003,1.051139e-001
2.463375e+003,1.057442e-001
2.465786e+003,1.066841e-001
2.468196e+003,1.079953e-001
2.470607e+003,1.096337e-001
2.473017e+003,1.114593e-001
2.475428e+003,1.134514e-001
2.477839e+003,1.155163e-001
2.480249e+003,1.174928e-001
2.482660e+003,1.191301e-001
2.485070e+003,1.204047e-001
2.487481e+003,1.216110e-001
2.489892e+003,1.229499e-001
2.492302e+003,1.241328e-001
2.494713e+003,1.249275e-001
2.497123e+003,1.256870e-001
2.499534e+003,1.268450e-001
2.501944e+003,1.285130e-001
2.504355e+003,1.303073e-001
2.506766e+003,1.317141e-001
2.509176e+003,1.324369e-001
2.511587e+003,1.324416e-001
2.513997e+003,1.321738e-001
2.516408e+003,1.319825e-001
2.518819e+003,1.318502e-001
2.521229e+003,1.314883e-001
2.523640e+003,1.308535e-001
2.526050e+003,1.301252e-001
2.528461e+003,1.295272e-001
2.530871e+003,1.292235e-001
2.533282e+003,1.291897e-001
2.535693e+003,1.294897e-001
2.538103e+003,1.303499e-001
2.540514e+003,1.319395e-001
2.542924e+003,1.338765e-001
2.545335e+003,1.349738e-001
2.547746e+003,1.347019e-001
2.550156e+003,1.337235e-001
2.552567e+003,1.328298e-001
2.554977e+003,1.325374e-001
2.557388e+003,1.326966e-001
2.559798e+003,1.330790e-001
2.562209e+003,1.333336e-001
2.564620e+003,1.333220e-001
2.567030e+003,1.332444e-001
2.569441e+003,1.334219e-001
2.571851e+003,1.344928e-001
2.574262e+003,1.372151e-001
2.576673e+003,1.424624e-001
2.579083e+003,1.480680e-001
2.581494e+003,1.485596e-001
2.583904e+003,1.442752e-001
2.586315e+003,1.403236e-001
2.588725e+003,1.388196e-001
2.591136e+003,1.399919e-001
2.593547e+003,1.435670e-001
2.595957e+003,1.492905e-001
2.598368e+003,1.557691e-001
2.600778e+003,1.607341e-001
2.603189e+003,1.617986e-001
2.605600e+003,1.584067e-001
2.608010e+003,1.531073e-001
2.610421e+003,1.485300e-001
2.612831e+003,1.458102e-001
2.615242e+003,1.449849e-001
2.617652e+003,1.458332e-001
2.620063e+003,1.480967e-001
2.622474e+003,1.517680e-001
2.624884e+003,1.569273e-001
2.627295e+003,1.639743e-001
2.629705e+003,1.704681e-001
2.632116e+003,1.709378e-001
2.634527e+003,1.661298e-001
2.636937e+003,1.607485e-001
2.639348e+003,1.573037e-001
2.641758e+003,1.559547e-001
2.644169e+003,1.557775e-001
2.646579e+003,1.557460e-001
2.648990e+003,1.556036e-001
2.651401e+003,1.554026e-001
2.653811e+003,1.552338e-001
2.656222e+003,1.551646e-001
2.658632e+003,1.551646e-001
2.661043e+003,1.553573e-001
2.663454e+003,1.559171e-001
2.665864e+003,1.570426e-001
2.668275e+003,1.584182e-001
2.670685e+003,1.592382e-001
2.673096e+003,1.592642e-001
2.675506e+003,1.590383e-001
2.677917e+003,1.589825e-001
2.680328e+003,1.590588e-001
2.682738e+003,1.592088e-001
2.685149e+003,1.592994e-001
2.687559e+003,1.592507e-001
2.689970e+003,1.590414e-001
2.692381e+003,1.586455e-001
2.694791e+003,1.581889e-001
2.697202e+003,1.578151e-001
2.699612e+003,1.575627e-001
2.702023e+003,1.575624e-001
2.704433e+003,1.577838e-001
2.706844e+003,1.582838e-001
2.709255e+003,1.590804e-001
2.711665e+003,1.599007e-001
2.714076e+003,1.607464e-001
2.716486e+003,1.613592e-001
2.718897e+003,1.616708e-001
2.721308e+003,1.616785e-001
2.723718e+003,1.613435e-001
2.726129e+003,1.607771e-001
2.728539e+003,1.600495e-001
2.730950e+003,1.590153e-001
2.733360e+003,1.574533e-001
2.735771e+003,1.557273e-001
2.738182e+003,1.543225e-001
2.740592e+003,1.534528e-001
2.743003e+003,1.530541e-001
2.745413e+003,1.532289e-001
2.747824e+003,1.538572e-001
2.750235e+003,1.549048e-001
2.752645e+003,1.563139e-001
2.755056e+003,1.578063e-001
2.757466e+003,1.595022e-001
2.759877e+003,1.614741e-001
2.762287e+003,1.637203e-001
2.764698e+003,1.664216e-001
2.767109e+003,1.698319e-001
2.769519e+003,1.743978e-001
2.771930e+003,1.801575e-001
2.774340e+003,1.865083e-001
2.776751e+003,1.920543e-001
2.779162e+003,1.958485e-001
2.781572e+003,1.979423e-001
2.783983e+003,1.995806e-001
2.786393e+003,2.019332e-001
2.788804e+003,2.054388e-001
2.791214e+003,2.101923e-001
2.793625e+003,2.160025e-001
2.796036e+003,2.226105e-001
2.798446e+003,2.300524e-001
2.800857e+003,2.383943e-001
2.803267e+003,2.475509e-001
2.805678e+003,2.569222e-001
2.808089e+003,2.660792e-001
2.810499e+003,2.746938e-001
2.812910e+003,2.838156e-001
2.815320e+003,2.952743e-001
2.817731e+003,3.108858e-001
2.820141e+003,3.329328e-001
2.822552e+003,3.642926e-001
2.824963e+003,4.087504e-001
2.827373e+003,4.718546e-001
2.829784e+003,5.606180e-001
2.832194e+003,6.838540e-001
2.834605e+003,8.549405e-001
2.837016e+003,1.091910e+000
2.839426e+003,1.408789e+000
2.841837e+003,1.786456e+000
2.844247e+003,2.175989e+000
2.846658e+003,2.555764e+000
2.849068e+003,2.719757e+000
2.851479e+003,2.495834e+000
2.853890e+003,2.224778e+000
2.856300e+003,1.954847e+000
2.858711e+003,1.706124e+000
2.861121e+003,1.499436e+000
2.863532e+003,1.348527e+000
2.865943e+003,1.254478e+000
2.868353e+003,1.209324e+000
2.870764e+003,1.198811e+000
2.873174e+003,1.213987e+000
2.875585e+003,1.255518e+000
2.877995e+003,1.322930e+000
2.880406e+003,1.409681e+000
2.882817e+003,1.509234e+000
2.885227e+003,1.620238e+000
2.887638e+003,1.744103e+000
2.890048e+003,1.887122e+000
2.892459e+003,2.052603e+000
2.894870e+003,2.261041e+000
2.897280e+003,2.528556e+000
2.899691e+003,2.872385e+000
2.902101e+003,3.283341e+000
2.904512e+003,3.950947e+000
2.906922e+003,6.000000e+000
2.909333e+003,6.000000e+000
2.911744e+003,6.000000e+000
2.914154e+003,6.000000e+000
2.916565e+003,6.000000e+000
2.918975e+003,6.000000e+000
2.921386e+003,6.000000e+000
2.923797e+003,6.000000e+000
2.926207e+003,6.000000e+000
2.928618e+003,6.000000e+000
2.931028e+003,6.000000e+000
2.933439e+003,6.000000e+000
2.935849e+003,6.000000e+000
2.938260e+003,6.000000e+000
2.940671e+003,3.192023e+000
2.943081e+003,2.695564e+000
2.945492e+003,2.347941e+000
2.947902e+003,2.071166e+000
2.950313e+003,1.836819e+000
2.952724e+003,1.643776e+000
2.955134e+003,1.471845e+000
2.957545e+003,1.315857e+000
2.959955e+003,1.175744e+000
2.962366e+003,1.051310e+000
2.964776e+003,9.454051e-001
2.967187e+003,8.604176e-001
2.969598e+003,7.983609e-001
2.972008e+003,7.583802e-001
2.974419e+003,7.339078e-001
2.976829e+003,7.109885e-001
2.979240e+003,6.838339e-001
2.981651e+003,6.593696e-001
2.984061e+003,6.456168e-001
2.986472e+003,6.450891e-001
2.988882e+003,6.610171e-001
2.991293e+003,7.034637e-001
2.993703e+003,7.976694e-001
2.996114e+003,9.783960e-001
2.998525e+003,1.202553e+000
3.000935e+003,1.309131e+000
3.003346e+003,1.253239e+000
3.005756e+003,1.156629e+000
3.008167e+003,1.107944e+000
3.010578e+003,1.135213e+000
3.012988e+003,1.261994e+000
3.015399e+003,1.539002e+000
3.017809e+003,2.055839e+000
3.020220e+003,3.086703e+000
3.022630e+003,6.000000e+000
3.025041e+003,6.000000e+000
3.027452e+003,6.000000e+000
3.029862e+003,3.689782e+000
3.032273e+003,2.467690e+000
3.034683e+003,1.863467e+000
3.037094e+003,1.475326e+000
3.039505e+003,1.228140e+000
3.041915e+003,1.077490e+000
3.044326e+003,1.016050e+000
3.046736e+003,1.045995e+000
3.049147e+003,1.154451e+000
3.051557e+003,1.338441e+000
3.053968e+003,1.625157e+000
3.056379e+003,2.012997e+000
3.058789e+003,2.290199e+000
3.061200e+003,2.193838e+000
3.063610e+003,1.839098e+000
3.066021e+003,1.479095e+000
3.068432e+003,1.240595e+000
3.070842e+003,1.120265e+000
3.073253e+003,1.094199e+000
3.075663e+003,1.170503e+000
3.078074e+003,1.377751e+000
3.080484e+003,1.613885e+000
3.082895e+003,1.592915e+000
3.085306e+003,1.288853e+000
3.087716e+003,9.469673e-001
3.090127e+003,7.094039e-001
3.092537e+003,5.813184e-001
3.094948e+003,5.325642e-001
3.097359e+003,5.385932e-001
3.099769e+003,5.750574e-001
3.102180e+003,5.981039e-001
3.104590e+003,5.600418e-001
3.107001e+003,4.691916e-001
3.109411e+003,3.755028e-001
3.111822e+003,3.057337e-001
3.114233e+003,2.595465e-001
3.116643e+003,2.295877e-001
3.119054e+003,2.098780e-001
3.121464e+003,1.967792e-001
3.123875e+003,1.874827e-001
3.126286e+003,1.807261e-001
3.128696e+003,1.755490e-001
3.131107e+003,1.715519e-001
3.133517e+003,1.684011e-001
3.135928e+003,1.658721e-001
3.138338e+003,1.640250e-001
3.140749e+003,1.627172e-001
3.143160e+003,1.617725e-001
3.145570e+003,1.611283e-001
3.147981e+003,1.606552e-001
3.150391e+003,1.607020e-001
3.152802e+003,1.618345e-001
3.155213e+003,1.653328e-001
3.157623e+003,1.716054e-001
3.160034e+003,1.777549e-001
3.162444e+003,1.776772e-001
3.164855e+003,1.701479e-001
3.167265e+003,1.607956e-001
3.169676e+003,1.539006e-001
3.172087e+003,1.497870e-001
3.174497e+003,1.475373e-001
3.176908e+003,1.463886e-001
3.179318e+003,1.457486e-001
3.181729e+003,1.453637e-001
3.184140e+003,1.448340e-001
3.186550e+003,1.442263e-001
3.188961e+003,1.437103e-001
3.191371e+003,1.435914e-001
3.193782e+003,1.439222e-001
3.196192e+003,1.444665e-001
3.198603e+003,1.446470e-001
3.201014e+003,1.441332e-001
3.203424e+003,1.428692e-001
3.205835e+003,1.414121e-001
3.208245e+003,1.399916e-001
3.210656e+003,1.388914e-001
3.213067e+003,1.380909e-001
3.215477e+003,1.373878e-001
3.217888e+003,1.369330e-001
3.220298e+003,1.365814e-001
3.222709e+003,1.362867e-001
3.225119e+003,1.360918e-001
3.227530e+003,1.359522e-001
3.229941e+003,1.358388e-001
3.232351e+003,1.358072e-001
3.234762e+003,1.357667e-001
3.237172e+003,1.358481e-001
3.239583e+003,1.359177e-001
3.241994e+003,1.360326e-001
3.244404e+003,1.362618e-001
3.246815e+003,1.363067e-001
3.249225e+003,1.364315e-001
3.251636e+003,1.365679e-001
3.254046e+003,1.367323e-001
3.256457e+003,1.368082e-001
3.258868e+003,1.368317e-001
3.261278e+003,1.368665e-001
3.263689e+003,1.368136e-001
3.266099e+003,1.367972e-001
3.268510e+003,1.367696e-001
3.270921e+003,1.367126e-001
3.273331e+003,1.367665e-001
3.275742e+003,1.367687e-001
3.278152e+003,1.367848e-001
3.280563e+003,1.368181e-001
3.282973e+003,1.368909e-001
3.285384e+003,1.369111e-001
3.287795e+003,1.369550e-001
3.290205e+003,1.369708e-001
3.292616e+003,1.369786e-001
3.295026e+003,1.369618e-001
3.297437e+003,1.370580e-001
3.299848e+003,1.370117e-001
3.302258e+003,1.370203e-001
3.304669e+003,1.370394e-001
3.307079e+003,1.370775e-001
3.309490e+003,1.371254e-001
3.311900e+003,1.372353e-001
3.314311e+003,1.373377e-001
3.316722e+003,1.374544e-001
3.319132e+003,1.376808e-001
3.321543e+003,1.378306e-001
3.323953e+003,1.380721e-001
3.326364e+003,1.382262e-001
3.328775e+003,1.383864e-001
3.331185e+003,1.386147e-001
3.333596e+003,1.388150e-001
3.336006e+003,1.390760e-001
3.338417e+003,1.391938e-001
3.340827e+003,1.393805e-001
3.343238e+003,1.394742e-001
3.345649e+003,1.395648e-001
3.348059e+003,1.396551e-001
3.350470e+003,1.396715e-001
3.352880e+003,1.397547e-001
3.355291e+003,1.399170e-001
3.357702e+003,1.400640e-001
3.360112e+003,1.402625e-001
3.362523e+003,1.404836e-001
3.364933e+003,1.408776e-001
3.367344e+003,1.412255e-001
3.369754e+003,1.416267e-001
3.372165e+003,1.421437e-001
3.374576e+003,1.427494e-001
3.376986e+003,1.433000e-001
3.379397e+003,1.437503e-001
3.381807e+003,1.440987e-001
3.384218e+003,1.443076e-001
3.386628e+003,1.444032e-001
3.389039e+003,1.444847e-001
3.391450e+003,1.446168e-001
3.393860e+003,1.446922e-001
3.396271e+003,1.449285e-001
3.398681e+003,1.450474e-001
3.401092e+003,1.450700e-001
3.403503e+003,1.451004e-001
3.405913e+003,1.450482e-001
3.408324e+003,1.450473e-001
3.410734e+003,1.449997e-001
3.413145e+003,1.449535e-001
3.415555e+003,1.450581e-001
3.417966e+003,1.453306e-001
3.420377e+003,1.456754e-001
3.422787e+003,1.461910e-001
3.425198e+003,1.470107e-001
3.427608e+003,1.479100e-001
3.430019e+003,1.488048e-001
3.432430e+003,1.498160e-001
3.434840e+003,1.508254e-001
3.437251e+003,1.516856e-001
3.439661e+003,1.520384e-001
3.442072e+003,1.518403e-001
3.444482e+003,1.511710e-001
3.446893e+003,1.503652e-001
3.449304e+003,1.495178e-001
3.451714e+003,1.488684e-001
3.454125e+003,1.484061e-001
3.456535e+003,1.480079e-001
3.458946e+003,1.476983e-001
3.461357e+003,1.473325e-001
3.463767e+003,1.470318e-001
3.466178e+003,1.466156e-001
3.468588e+003,1.459578e-001
3.470999e+003,1.452799e-001
3.473409e+003,1.446168e-001
3.475820e+003,1.439540e-001
3.478231e+003,1.432849e-001
3.480641e+003,1.424196e-001
3.483052e+003,1.416761e-001
3.485462e+003,1.408764e-001
3.487873e+003,1.400019e-001
3.490284e+003,1.391547e-001
3.492694e+003,1.382338e-001
3.495105e+003,1.372456e-001
3.497515e+003,1.363548e-001
3.499926e+003,1.355204e-001
3.502336e+003,1.345863e-001
3.504747e+003,1.338259e-001
3.507158e+003,1.330750e-001
3.509568e+003,1.323012e-001
3.511979e+003,1.315070e-001
3.514389e+003,1.306821e-001
3.516800e+003,1.299198e-001
3.519211e+003,1.290939e-001
3.521621e+003,1.283463e-001
3.524032e+003,1.275265e-001
3.526442e+003,1.267378e-001
3.528853e+003,1.259790e-001
3.531263e+003,1.252388e-001
3.533674e+003,1.245288e-001
3.536085e+003,1.237511e-001
3.538495e+003,1.229552e-001
3.540906e+003,1.222008e-001
3.543316e+003,1.213844e-001
3.545727e+003,1.205047e-001
3.548138e+003,1.197015e-001
3.550548e+003,1.188821e-001
3.552959e+003,1.181856e-001
3.555369e+003,1.174968e-001
3.557780e+003,1.167535e-001
3.560190e+003,1.160277e-001
3.562601e+003,1.153159e-001
3.565012e+003,1.147086e-001
3.567422e+003,1.141503e-001
3.569833e+003,1.137549e-001
3.572243e+003,1.135298e-001
3.574654e+003,1.133659e-001
3.577065e+003,1.133332e-001
3.579475e+003,1.131962e-001
3.581886e+003,1.129471e-001
3.584296e+003,1.128480e-001
3.586707e+003,1.123954e-001
3.589117e+003,1.119161e-001
3.591528e+003,1.112251e-001
3.593939e+003,1.106490e-001
3.596349e+003,1.100397e-001
3.598760e+003,1.095002e-001
3.601170e+003,1.092454e-001
3.603581e+003,1.092993e-001
3.605992e+003,1.096945e-001
3.608402e+003,1.109552e-001
3.610813e+003,1.130801e-001
3.613223e+003,1.166374e-001
3.615634e+003,1.210837e-001
3.618044e+003,1.244477e-001
3.620455e+003,1.240879e-001
3.622866e+003,1.210113e-001
3.625276e+003,1.176469e-001
3.627687e+003,1.158154e-001
3.630097e+003,1.146546e-001
3.632508e+003,1.150398e-001
3.634919e+003,1.173062e-001
3.637329e+003,1.214162e-001
3.639740e+003,1.274928e-001
3.642150e+003,1.338496e-001
3.644561e+003,1.379936e-001
3.646971e+003,1.385400e-001
3.649382e+003,1.350396e-001
3.651793e+003,1.296235e-001
3.654203e+003,1.249571e-001
3.656614e+003,1.205556e-001
3.659024e+003,1.171856e-001
3.661435e+003,1.147535e-001
3.663846e+003,1.131559e-001
3.666256e+003,1.126191e-001
3.668667e+003,1.129091e-001
3.671077e+003,1.126290e-001
3.673488e+003,1.130608e-001
3.675898e+003,1.128141e-001
3.678309e+003,1.116832e-001
3.680720e+003,1.104481e-001
3.683130e+003,1.089792e-001
3.685541e+003,1.079220e-001
3.687951e+003,1.073797e-001
3.690362e+003,1.067670e-001
3.692773e+003,1.072810e-001
3.695183e+003,1.086545e-001
3.697594e+003,1.098949e-001
3.700004e+003,1.103122e-001
3.702415e+003,1.089257e-001
3.704825e+003,1.069157e-001
3.707236e+003,1.053763e-001
3.709647e+003,1.048074e-001
3.712057e+003,1.050366e-001
3.714468e+003,1.059354e-001
3.716878e+003,1.072512e-001
3.719289e+003,1.080030e-001
3.721700e+003,1.075632e-001
3.724110e+003,1.064124e-001
3.726521e+003,1.046086e-001
3.728931e+003,1.035104e-001
3.731342e+003,1.033170e-001
3.733752e+003,1.030692e-001
3.736163e+003,1.031975e-001
3.738574e+003,1.029530e-001
3.740984e+003,1.030805e-001
3.743395e+003,1.041498e-001
3.745805e+003,1.037531e-001
3.748216e+003,1.047080e-001
3.750627e+003,1.055315e-001
3.753037e+003,1.055857e-001
3.755448e+003,1.061914e-001
3.757858e+003,1.071383e-001
3.760269e+003,1.076462e-001
3.762679e+003,1.077684e-001
3.765090e+003,1.077110e-001
3.767501e+003,1.078452e-001
3.769911e+003,1.075324e-001
3.772322e+003,1.072369e-001
3.774732e+003,1.071026e-001
3.777143e+003,1.073990e-001
3.779554e+003,1.075535e-001
3.781964e+003,1.079537e-001
3.784375e+003,1.085256e-001
3.786785e+003,1.093104e-001
3.789196e+003,1.102541e-001
3.791606e+003,1.113485e-001
3.794017e+003,1.125779e-001
3.796428e+003,1.134887e-001
3.798838e+003,1.145221e-001
3.801249e+003,1.150033e-001
3.803659e+003,1.148155e-001
3.806070e+003,1.152693e-001
3.808481e+003,1.149735e-001
3.810891e+003,1.150700e-001
3.813302e+003,1.155970e-001
3.815712e+003,1.159523e-001
3.818123e+003,1.157708e-001
3.820533e+003,1.156313e-001
3.822944e+003,1.149353e-001
3.825355e+003,1.143355e-001
3.827765e+003,1.138395e-001
3.830176e+003,1.134881e-001
3.832586e+003,1.131739e-001
3.834997e+003,1.129286e-001
3.837408e+003,1.127696e-001
3.839818e+003,1.121233e-001
3.842229e+003,1.117547e-001
3.844639e+003,1.113597e-001
3.847050e+003,1.108987e-001
3.849460e+003,1.110216e-001
3.851871e+003,1.119142e-001
3.854282e+003,1.115091e-001
3.856692e+003,1.107774e-001
3.859103e+003,1.109731e-001
3.861513e+003,1.111945e-001
3.863924e+003,1.114913e-001
3.866335e+003,1.115150e-001
3.868745e+003,1.118258e-001
3.871156e+003,1.117293e-001
3.873566e+003,1.114125e-001
3.875977e+003,1.114694e-001
3.878387e+003,1.116630e-001
3.880798e+003,1.118771e-001
3.883209e+003,1.122327e-001
3.885619e+003,1.125117e-001
3.888030e+003,1.128133e-001
3.890440e+003,1.133002e-001
3.892851e+003,1.137703e-001
3.895262e+003,1.142189e-001
3.897672e+003,1.147838e-001
3.900083e+003,1.152565e-001
3.902493e+003,1.154730e-001
3.904904e+003,1.152479e-001
3.907314e+003,1.151445e-001
3.909725e+003,1.152683e-001
3.912136e+003,1.155440e-001
3.914546e+003,1.161093e-001
3.916957e+003,1.166280e-001
3.919367e+003,1.171338e-001
3.921778e+003,1.176295e-001
3.924189e+003,1.180077e-001
3.926599e+003,1.185350e-001
3.929010e+003,1.189309e-001
3.931420e+003,1.194093e-001
3.933831e+003,1.199545e-001
3.936241e+003,1.201318e-001
3.938652e+003,1.199658e-001
3.941063e+003,1.195180e-001
3.943473e+003,1.189749e-001
3.945884e+003,1.184780e-001
3.948294e+003,1.182562e-001
3.950705e+003,1.182414e-001
3.953116e+003,1.183804e-001
3.955526e+003,1.187322e-001
3.957937e+003,1.192292e-001
3.960347e+003,1.197736e-001
3.962758e+003,1.203205e-001
3.965168e+003,1.207582e-001
3.967579e+003,1.213315e-001
3.969990e+003,1.222053e-001
3.972400e+003,1.231880e-001
3.974811e+003,1.236424e-001
3.977221e+003,1.235214e-001
3.979632e+003,1.231933e-001
3.982043e+003,1.229452e-001
3.984453e+003,1.231780e-001
3.986864e+003,1.240558e-001
3.989274e+003,1.257106e-001
3.991685e+003,1.283492e-001
3.994095e+003,1.320375e-001
3.996506e+003,1.355640e-001
3.998917e+003,1.378539e-001
3.999881e+003,1.382411e-001